timestamp_ns,accel_x,accel_y,accel_z,gyro_x,gyro_y,gyro_z
1778454618732291337,0.29247216985823055,-0.07130733065809702,9.314664127043738,-0.0013219505545378832,-0.00035247469659417663,-0.00036679185061443175
1778454618753445619,0.31426830882258294,-0.07967588279421356,9.324621614445405,-0.0011174197828198,-0.00014794392487608998,-0.0005713226223325175
1778454618772453012,0.29973622109914855,-0.06652187951870525,9.32075323631122,-0.000640181315477599,-0.0006251823922182945,-0.00016226107889634597
1778454618793039349,0.30210972263760594,-0.07727613703825187,9.314834553406262,-0.002549135184846396,0.0028518407269891577,0.0005195081601639387
1778454618813403983,0.3057054333797522,-0.08564039236569759,9.311323785708252,-0.002276427489222285,0.0013519484010565339,-0.002071214948265144
1778454618834563136,0.3043984407095335,-0.06648574320962553,9.311234634531887,-0.0009128890111017134,0.0010110637815263918,0.0022239312578146513
1778454618854657529,0.28663527144053624,-0.06656669516175945,9.327743825634752,-0.0017991890218800842,0.0014883022488685893,0.0022239312578146513
1778454618875303125,0.30821905576834574,-0.07130582596828233,9.324497998096367,-0.003094550576094625,-0.0020568977942448906,-0.0005031456984264889
1778454618895530185,0.31199138297948037,-0.07372448090951506,9.335354340224017,-0.0029581967282825694,-0.0020568977942448906,-0.0022757457199832297
1778454618916049004,0.31054028421752733,-0.05693375011611301,9.32448213415536,-0.0020718967175041986,-0.0027386670333051748,0.0006558620079759958
1778454618936547582,0.311868950472582,-0.07370061125648975,9.326960655287307,-0.002344604413128313,-0.005602097837358374,0.0021557543339086227
1778454618957149994,0.29147904819791515,-0.06776196231528142,9.330220615206748,-0.002344604413128313,-0.001102420859560492,4.2269692821739376e-05
1778454618977489053,0.3142483481254519,-0.07608397091937397,9.324608375834467,-0.0031627275000006526,0.002579133031365047,-0.0013212687852988303
1778454618997956520,0.31167826942087506,-0.06768340191120081,9.316146710302831,-0.003094550576094625,0.00012476377074802092,0.0011331004753181951
1778454619018661450,0.30341938363193666,-0.07490318459831191,9.323237957853719,0.0009960648582670838,0.0006020022380902185,-0.0013212687852988303
1778454619039037084,0.31057183915837416,-0.06889996979804713,9.322128067162279,-0.002003719793598171,0.001692833020586676,-0.0012530918613928017
1778454619059459144,0.2973400905394481,-0.07370331172033107,9.318344427334148,-0.0004356505437595141,0.000465648390278163,0.00017862354063379613
1778454619080095778,0.3058071477382218,-0.07250414832894109,9.323266222615834,-0.0011855967067258277,0.0013519484010565339,0.00017862354063379613
1778454619100644485,0.30204147409279747,-0.07128279734598825,9.3124142933585,-0.003571789043436826,0.00032929454246610756,0.00017862354063379613
1778454619121539656,0.30325950006977875,-0.07128399312001488,9.313631936457972,0.0016096571734213402,-0.0012387747073725475,0.00011044661672776797
1778454619141677901,0.29862656304634727,-0.05458174366620194,9.33148244298964,-0.0013901274784439144,-0.0014433054790906341,0.0016785158665664232
1778454619162153627,0.2987081187225764,-0.06296969127502527,9.33391152877803,-0.0010492428589137705,0.00026111761856007637,0.0014739850948483377
1778454619182648817,0.3130919171275688,-0.08087881087933113,9.325806579912449,-0.0017310120979740565,0.003601786889955473,0.00017862354063379613
1778454619203388525,0.3021289258834392,-0.07129984709814918,9.318409782599007,-0.0017310120979740565,0.0005338253141841942,0.0036556466598412496
1778454619223819603,0.2987155297395846,-0.07373519704824738,9.330353951066535,-0.0013901274784439144,0.0030563714987072443,0.0009285697036001098
1778454619244285422,0.29883377901977537,-0.07615026466740027,9.337557363895767,-0.002344604413128313,-0.0008297131639363811,-9.408415499031781e-05
1778454619264848185,0.3057196959475801,-0.07248709857678015,9.317270733375327,-9.476592422937198e-05,-0.0017841900986207762,0.0021557543339086227
1778454619285441208,0.30458322564682794,-0.08087385041157685,9.318482176064244,-0.0005038274676655435,-0.00348861319627149,-0.0013212687852988303
1778454619305971397,0.3103868562359704,-0.07962796611651513,9.305380413121668,-0.0011855967067258277,0.00026111761856007637,0.0021557543339086227
1778454619326488605,0.30816829758166553,-0.0653158962264509,9.323276835896703,-0.0019355428696921397,0.0012837714771505027,-0.0007758533940506024
1778454619346992627,0.3154555373100152,-0.07727906070124829,9.32463133395615,-0.0021400736414102263,-0.00014794392487608998,-0.00029861492670840315
1778454619368247558,0.29884537326349114,-0.0845245724744948,9.335190058291749,-0.0033672582717187392,0.0018973637923047626,-0.001184914937486774
1778454619388560191,0.29990618400242663,-0.05937897517421237,9.335115933266563,-0.0032990813478127115,0.00012476377074802092,0.0008603927796940812
1778454619409040844,0.3130394460531837,-0.08086858102803457,9.322209286368143,-0.003026373652188597,-0.00014794392487608998,0.003042054344686993
1778454619429600255,0.29630609204846337,-0.07852202133331354,9.327936316348838,-0.0015264813262559698,-0.00035247469659417663,0.0018830466382845088
1778454619450052222,0.30325113361636347,-0.07606638905226987,9.311251392243014,-0.0005720043915715713,0.0024427791835529913,0.00017862354063379613
1778454619470505949,0.3117632508725141,-0.0641119497389544,9.323328058780502,-0.0056170967606176785,-0.0005570054683122633,0.0012012773992242237
1778454619490920879,0.30446003568863167,-0.07128177894360932,9.313650481709342,-0.0015946582501619976,-0.004034028587519719,0.0029057004968749364
1778454619511388327,0.2998202471143805,-0.07849832905193593,9.321996462862442,0.0012005956299851704,-0.0024659593376810604,-0.001184914937486774
1778454619531852739,0.30452828423344014,-0.07727511863587294,9.316070741757105,-0.0032309044239066838,-0.0009660670117484366,-0.0007076764701445738
1778454619552305391,0.31169081910099794,-0.060509808012818245,9.319717526625261,-0.002276427489222285,-0.0020568977942448906,0.0008603927796940812
1778454619572859080,0.30705692664115936,-0.05935546026448252,9.331629911230483,0.00045064946701885676,0.0003974714663721318,0.0011331004753181951
1778454619593270177,0.3081424407701219,-0.07009488220827376,9.319697193833647,-0.0033672582717187392,-0.0032840824245534035,0.0012694543231302523
1778454619613714625,0.3011215416552959,-0.08090777254425102,9.328019323094944,-0.0032309044239066838,0.0003974714663721318,-0.0009803841657686882
1778454619634203389,0.3033402982947101,-0.07010373891389593,9.319623012828165,-0.0007765351632896562,-0.0021932516420569495,-0.0006394995462385453
1778454619654680634,0.3033977100471007,-0.07729097261400725,9.32084858789814,0.0003142956192067996,-0.0029431978050232614,0.0014058081709423095
1778454619675130953,0.30098504456567887,-0.06892109315972378,9.323178802999415,-0.004117204434685055,0.0021018945640228492,0.0031102312685930217
1778454619695641197,0.2988096350959367,-0.07494955075868825,9.336353853177355,0.002018718716857512,-0.0020568977942448906,-0.0019348611004530868
1778454619716610072,0.2927103813063171,-0.07015776600586776,9.331447084046847,-0.002344604413128313,-0.0006933593161243187,-0.0005713226223325175
1778454619736882039,0.2878757284536513,-0.07374830473503297,9.327788848107996,-0.0020718967175041986,0.0018291868683987314,-0.00023043800280237456
1778454619757373876,0.3008734488511985,-0.06770332949885077,9.315979803040495,-0.0005038274676655435,0.00012476377074802092,4.2269692821739376e-05
1778454619777828862,0.29494567286745255,-0.07490504403142201,9.318311749701719,-9.476592422937198e-05,-0.0006251823922182945,-0.000844030317956631
1778454619798188996,0.3022988887867173,-0.0641569427536563,9.332772479554352,-0.003435435195624767,-0.0019205439464328351,0.0017466927904724518
1778454619818716074,0.29994192216998117,-0.06895399689001902,9.33395213838096,0.0001779417713947424,-0.0006251823922182945,0.00011044661672776797
1778454619839239097,0.2985381558192983,-0.07011259561951816,9.319548831822683,-0.0013901274784439144,0.0015564791727746205,-0.00043496877452046034
1778454619859604582,0.30220554088166296,-0.07251079085815776,9.323210586861723,-0.001458304402349942,0.003601786889955473,0.003246585116405079
1778454619880101716,0.30211067807401304,-0.06172823533277472,9.320772675332712,-0.0002992966959474569,-0.0012387747073725475,0.0022921081817206795
1778454619900771739,0.3022971758990124,-0.07013664264419117,9.33039634820971,-0.0045262659781212244,-0.0008297131639363811,0.0012694543231302523
1778454619921040076,0.31542892304717374,-0.07248984486812887,9.3246136824749,-0.0021400736414102263,0.0014883022488685893,-0.0009803841657686882
1778454619941543654,0.29741423519866916,-0.07132575355593229,9.324331090834033,-0.0013219505545378832,0.0017610099444927071,-0.0013212687852988303
1778454619962352695,0.30216067880939546,-0.05814996325966393,9.325555828114183,0.00010976484748871293,0.000465648390278163,0.0017466927904724518
1778454619982657736,0.30193748738043447,-0.05571443593791797,9.311157828196336,-0.0011174197828198,-7.976700097006573e-05,0.0037920005076533068
1778454620003130518,0.30936122419840106,-0.07966427979724261,9.317352846351314,0.0005188263909248845,-0.001102420859560492,0.0016103389426603948
1778454620023755004,0.3166651968335812,-0.08206265240752997,9.323468432840668,-0.0010492428589137705,-0.0019205439464328351,0.0016785158665664232
1778454620044023656,0.3093363228232645,-0.06889536407358832,9.319711326214705,0.000927887934361056,-1.1590077064034532e-05,0.0005876850840699673
1778454620064747531,0.2888471765291307,-0.0796814610935439,9.309842989989404,-0.0017310120979740565,-0.0014433054790906341,0.0039965312793713926
1778454620085204924,0.30577463736096777,-0.07608583035248412,9.319682167682465,-0.001458304402349942,-0.0015114824029966618,0.0005876850840699673
1778454620105445446,0.30082591845481876,-0.07487010349636897,9.31001079102186,-0.0013219505545378832,-0.0019205439464328351,0.0003831543123518819
1778454620125995598,0.29741993332797234,-0.08807095921968927,9.318397381777896,-0.002003719793598171,0.0006020022380902185,0.00011044661672776797
1778454620146700177,0.31547227021684576,-0.0677142688367382,9.329392422386059,-0.002276427489222285,-1.1590077064034532e-05,-0.00023043800280237456
1778454620166957977,0.31436317163023286,-0.0904584383195966,9.327059525974418,-0.0027536659565644828,-0.0009660670117484366,0.0014058081709423095
1778454620187491463,0.30715748757811245,-0.08688322145362254,9.32813411370336,-0.0007765351632896562,-0.00028429777268815237,0.0016785158665664232
1778454620207952226,0.30095006384942224,-0.0689142732588594,9.320780607303213,-0.001867365945786112,-0.001579659326902693,0.0029738774207809645
1778454620228476452,0.31188891116971307,-0.07729252313132934,9.326973893898243,-0.0028218428804705105,-0.0015114824029966618,0.0015421620187543662
1778454620248845419,0.28788732269736705,-0.08212261254212755,9.32542154250398,-0.000640181315477599,0.00012476377074802092,0.002019400486096566
1778454620269672516,0.3046607960814588,-0.06653689246610833,9.329221102253413,-0.0029581967282825694,0.0028518407269891577,-0.00029861492670840315
1778454620290524372,0.3046741032128796,-0.06893150038266804,9.329229927994037,-0.0024127813370343407,0.00019294069465405211,0.0008603927796940812
1778454620310832358,0.29834994510659407,-0.06768388819863652,9.307549027601041,-0.002003719793598171,0.0015564791727746205,0.0008603927796940812
1778454620331515380,0.30582957877435557,-0.07968456212818803,9.322093601989607,-0.0011174197828198,-0.00021612084878212118,0.001337631247036281
1778454620351799329,0.29262197407926815,-0.08568861795918398,9.319513472879889,-0.0024127813370343407,0.0008065330098083051,0.0012012773992242237
1778454620372251185,0.3020914748281798,-0.0677045252728774,9.317197446139968,-0.0036399659673428536,0.001079240705432423,-0.0011167380135807454
1778454620392947411,0.30353687546082975,-0.06775005040252247,9.33400336126476,-0.0032990813478127115,0.0011474176293384472,0.0034511158881231642
1778454620413161415,0.3033528479748331,-0.06293014501551342,9.323193829150597,-0.002276427489222285,0.00032929454246610756,-0.0020030380243591154
1778454620433735141,0.2996037092511299,-0.0772601056884698,9.30760287581491,-0.0037081428912488813,0.0013519484010565339,0.0005195081601639387
1778454620454153090,0.3177033785512735,-0.07485274482841997,9.315066815933456,-0.0007083582393836284,0.0009428868576203606,0.000792215855788053
1778454620474688594,0.30574631021042153,-0.07727631440989957,9.317288384856576,-0.002549135184846396,-0.0012387747073725475,0.000792215855788053
1778454620495109080,0.3023521173124001,-0.07373537441989508,9.33280778251685,-0.0017991890218800842,0.0006020022380902185,-0.00023043800280237456
1778454620516005973,0.31295542003795174,-0.06889213149480389,9.32096605981692,-0.0013901274784439144,0.003329079194331362,-0.0005031456984264889
1778454620536186273,0.30341273006622627,-0.07370588064003208,9.323233544983406,-0.0015946582501619976,-0.0022614285659629772,0.00017862354063379613
1778454620556650962,0.30332699116328943,-0.06770913099733622,9.31961418708754,-0.0019355428696921397,0.00298819457480122,0.0021557543339086227
1778454620577417152,0.2986046914764019,-0.08208563520231665,9.319592960525805,-0.003503612119530798,0.00012476377074802092,0.003042054344686993
1778454620597612563,0.30953194455297695,-0.082089577267692,9.328153552724851,0.0014051264017032553,-0.0017160131747147485,-0.00016226107889634597
1778454620618059549,0.3045915921002432,-0.07609145447932186,9.320862720279198,-0.0011174197828198,0.001420125324962565,0.0017466927904724518
1778454620638945312,0.3035484697045454,-0.07612435820961705,9.331636055660741,-0.0011855967067258277,-0.0006251823922182945,0.0012694543231302523
1778454620659234279,0.2962444970693653,-0.07372598559932975,9.325520469171387,-0.0011855967067258277,0.0022382484118349047,0.003314762040311107
1778454620679764968,0.2986014636861014,-0.06892893146296702,9.324340810344777,-0.0007765351632896562,-0.0007615362400303499,0.0018148697143784802
1778454620700129713,0.3070801151285909,-0.07610407587867168,9.326895300022448,-0.0028218428804705105,0.0012155945532444784,-0.0012530918613928017
1778454620720779773,0.2999219614728501,-0.06536208501517943,9.333938899770024,-0.0017310120979740565,0.0018973637923047626,0.003314762040311107
1778454620741140518,0.3046972917003111,-0.08568011599685721,9.324495316786,-0.003503612119530798,-0.004374913207049861,0.0024284620295327367
1778454620761838263,0.2949665890009907,-0.06294905420078445,9.324263110239105,-0.001458304402349942,0.0015564791727746205,0.0003149773884458533
1778454620782201822,0.3080175379242207,-0.06648251063084104,9.312489368134104,0.0001779417713947424,0.002579133031365047,0.0017466927904724518
1778454620802651623,0.30457657208111755,-0.07967654645329703,9.318477763193933,-0.000640181315477599,0.00019294069465405211,-0.000844030317956631
1778454620823287904,0.2972967433697762,-0.07847888775172174,9.313565687422992,-0.002344604413128313,0.0006701791619962497,4.2269692821739376e-05
1778454620843620223,0.30216314914839815,-0.06173846518407128,9.324369968877017,-0.0017310120979740565,-0.0021932516420569495,0.0005876850840699673
1778454620864095320,0.30210306907189555,-0.07607883307997199,9.31483014053595,-0.001458304402349942,0.00032929454246610756,4.2269692821739376e-05
1778454620884889676,0.3083555528579627,-0.08329250535280963,9.329338518191896,-0.002276427489222285,0.0007383560859022739,-0.0017985072526410305
1778454620905266291,0.30341520040522896,-0.07729438256443943,9.322047685746242,0.0005188263909248845,-0.002329605489869005,-2.5907231084289217e-05
1778454620926128999,0.30464159283562553,-0.07251318240621102,9.325645873060669,-0.002003719793598171,0.0006020022380902185,0.0005195081601639387
1778454620946260596,0.3094521017644527,-0.0677219297683338,9.328100598281104,-2.658900032334252e-05,-0.001102420859560492,0.0016785158665664232
1778454620967035248,0.3118598265678689,-0.06891480537380257,9.328142101654159,-0.00036747361985348635,-0.0010342439356544608,0.0019512235621905374
1778454620987282937,0.30315627080871355,-0.06528383352688683,9.308813480714003,0.0006551802387369417,-0.001852367022526804,0.0014058081709423095
1778454621008356145,0.31062678057176196,-0.0724987015737511,9.324539501469419,-0.001458304402349942,-0.0029431978050232614,0.0029738774207809645
1778454621028516371,0.29362366017810826,-0.0593354868493251,9.315837641440087,-0.0012537736306318555,-0.0022614285659629772,0.001064923551412167
1778454621048901505,0.29483579004067706,-0.06770758048001418,9.313488881087439,-0.0008447120871956856,0.001079240705432423,-0.0006394995462385453
1778454621069874065,0.3047573717768137,-0.0713397481009565,9.334035145127068,-0.0024809582609403684,-0.0011705977834665197,0.0029057004968749364
1778454621090414143,0.3032994214640409,-0.07846781686969395,9.313658413679844,-0.002276427489222285,-0.00014794392487608998,0.003042054344686993
1778454621110911628,0.299719488192318,-0.07608667138321529,9.31599214788131,0.000587003314830914,0.0006701791619962497,0.0031784081924990503
1778454621131623133,0.30093827162059705,-0.0856560689721842,9.313647800398975,-0.0011174197828198,0.00032929454246610756,-0.0005713226223325175
1778454621152010322,0.3054548702366521,-0.06884744739588994,9.30047012489097,-0.001867365945786112,0.0015564791727746205,0.000792215855788053
1778454621172722548,0.2912492032032439,-0.06412913103525564,9.315818202418594,-0.002003719793598171,0.0012155945532444784,0.0005876850840699673
1778454621192894126,0.3096078020999029,-0.07373231921275841,9.336516347569377,-0.0009128890111017134,-0.0009660670117484366,-0.0011167380135807454
1778454621213358797,0.2983391083141761,-0.06887778220648416,9.306354342623253,-0.0027536659565644828,-0.000488828544406239,0.0012012773992242237
1778454621233789931,0.2937234636637637,-0.0772950462235229,9.31590383449477,-0.0017991890218800842,-0.00348861319627149,0.0026329928012508224
1778454621254159638,0.2997512411182742,-0.06293678754473003,9.323138193396485,-0.0027536659565644828,-0.0006251823922182945,0.0017466927904724518
1778454621274688217,0.3057638005685498,-0.07727972436033176,9.318487482704677,-0.0021400736414102263,-0.0013751285551846064,0.0011331004753181951
1778454621295383165,0.29632433985788953,-0.08809363309868795,9.325573423615134,0.001132418706079141,-0.0004206516205002078,0.0026329928012508224
1778454621315776262,0.3021831098455292,-0.06533037705891082,9.324383207487953,-0.000640181315477599,-0.0017841900986207762,-0.0011167380135807454
1778454621336424710,0.31520497416691506,-0.06048611573144069,9.313777673138866,-0.002003719793598171,-0.0012387747073725475,0.0009285697036001098
1778454621356772214,0.2987088761738742,-0.07253789308996755,9.330349538196222,-0.003435435195624767,0.00019294069465405211,-0.001389445709204859
1778454621377282552,0.3118697079238797,-0.08326881307143202,9.323398664705499,-0.0024127813370343407,-0.000488828544406239,0.002360285105626708
1778454621397673482,0.3033977100471007,-0.07729097261400725,9.32084858789814,-0.0005038274676655435,-0.0016478362508087208,-0.0014576226331108875
1778454621418102634,0.2971843902039979,-0.06769292227590651,9.309928678045875,0.0005188263909248845,-0.0013751285551846064,-0.0005713226223325175
1778454621438619323,0.2961237774501717,-0.06772241605576956,9.319502915579315,0.00045064946701885676,-0.0011705977834665197,0.0015421620187543662
1778454621459043790,0.30948612704430223,-0.08327665137467533,9.32456067205086,-0.003435435195624767,-0.0009660670117484366,-0.002071214948265144
1778454621479560054,0.29367935904279385,-0.0725024204399713,9.314687085165419,-0.0009810659350077428,-0.0021932516420569495,0.0009967466275061384
1778454621500033650,0.28762743766444454,-0.08565996521005209,9.30624921554529,-0.0011174197828198,-0.0008297131639363811,0.0020875774100025946
1778454621520542414,0.3068702308310507,-0.07606315647348544,9.31250612584523,-0.0008447120871956856,-0.0004206516205002078,-2.5907231084289217e-05
1778454621540866862,0.3010732538076185,-0.07850634472682694,9.325612301658118,-0.0009128890111017134,0.0016246560966806448,-0.0009122072418626596
1778454621561315181,0.31041271304751406,-0.07484898013469238,9.308960055184723,-0.00036747361985348635,0.001079240705432423,0.0003831543123518819
1778454621581787389,0.3009126127941628,-0.06531895143358762,9.319568270844174,-0.0007083582393836284,0.0014883022488685893,-0.0007758533940506024
1778454621602226948,0.2913366549938856,-0.06414618078741657,9.3218136916591,-0.0013901274784439144,-0.001102420859560492,-0.00016226107889634597
1778454621622749767,0.3031804147325522,-0.0664845474355989,9.310016991432416,-0.0013901274784439144,-0.0021250747181509183,0.0003149773884458533
1778454621643166438,0.2949681039035863,-0.08208545783066895,9.31713912907549,-0.0027536659565644828,0.0031245484226132755,0.0009967466275061384
1778454621664105683,0.292603726269842,-0.07611700619380957,9.321876365613594,-0.0012537736306318555,0.0006020022380902185,0.000792215855788053
1778454621684563187,0.29709446807435336,-0.06408737059933817,9.305119048042533,-0.0020718967175041986,0.00019294069465405211,0.002701169725156851
1778454621705157913,0.30458171074423235,-0.06173744678169235,9.32560615722786,-0.0026173121087524273,-0.0027386670333051748,-0.00023043800280237456
1778454621725406806,0.3164961893667102,-0.0736576550465457,9.315043857811773,0.0003824725431128273,0.0012837714771505027,-0.0006394995462385453
1778454621745858496,0.3191330017135,-0.06891516011709797,9.333049764554788,0.0003824725431128273,-0.0013069516312785787,0.0009285697036001098
1778454621766344296,0.3118622969068716,-0.07250330729820992,9.326956242416994,0.00010976484748871293,0.0014883022488685893,0.0017466927904724518
1778454621786836411,0.293804261888695,-0.07611479201740401,9.321894910864964,-0.0032309044239066838,-1.1590077064034532e-05,0.0022921081817206795
1778454621807301489,0.3010074756018126,-0.07610150695897067,9.322006182373187,-0.0001629428481353997,-0.0011705977834665197,-0.0018666841765470582
1778454621827798012,0.3107716441147942,-0.0797029850260233,9.331760565779902,-0.0048671505976513665,0.002033717640116818,0.0026329928012508224
1778454621848152886,0.30216904526281063,-0.05336756732740888,9.327936372329136,-0.0002992966959474569,5.6586846841989724e-05,-0.001389445709204859
1778454621868585705,0.30574973598583133,-0.06531691462882983,9.32204064754586,-0.0013219505545378832,-0.0012387747073725475,0.001064923551412167
1778454621889128283,0.31168073975987776,-0.07127190383560816,9.314960851065667,-0.0013219505545378832,-0.0023977824137750327,-0.003093868806855572
1778454621909577713,0.301141502352427,-0.08449968441909056,9.32803256170588,0.0007915340865489989,-0.0023977824137750327,-0.0005713226223325175
1778454621930041310,0.30216314914839815,-0.06173846518407128,9.324369968877017,-0.0007083582393836284,-0.0013751285551846064,-0.0013212687852988303
1778454621950457425,0.2996445860817992,-0.06889602773267184,9.313567474963234,-0.0015264813262559698,0.00019294069465405211,0.0003149773884458533
1778454621971011892,0.3139593784906851,-0.07124360582977174,9.306604256631696,0.0022232494885755967,0.0008065330098083051,0.0014739850948483377
1778454621991417637,0.30095006384942224,-0.0689142732588594,9.320780607303213,-0.0012537736306318555,0.000465648390278163,0.0020875774100025946
1778454622011841197,0.29957386719798795,-0.05931418611600081,9.312333074152635,-0.0021400736414102263,-0.003965851663613688,0.0029057004968749364
1778454622032274645,0.3032269896925247,-0.07486567514355785,9.310047881524602,-0.0005720043915715713,0.0003974714663721318,0.0005876850840699673
1778454622052739112,0.3128613146815996,-0.06767777778436307,9.314966157706099,-0.0017991890218800842,0.000465648390278163,0.0004513312362579105
1778454622073211783,0.3034060765005159,-0.0725085766817522,9.323229132113093,-0.0019355428696921397,0.0006020022380902185,-9.408415499031781e-05
1778454622093674157,0.309393734575655,-0.07608259777369963,9.32093690128468,-0.000640181315477599,-0.00014794392487608998,0.0014058081709423095
1778454622114121124,0.3058071477382218,-0.07250414832894109,9.323266222615834,0.00010976484748871293,0.00032929454246610756,-0.00043496877452046034
1778454622134596814,0.30916388958098373,-0.0724497664936738,9.306534488496524,-0.004730796749839311,0.0034654330421434176,0.0003831543123518819
1778454622155021447,0.2914490081596638,-0.0749321462632318,9.325450701036218,-0.0007765351632896562,0.0013519484010565339,0.0018148697143784802
1778454622175508081,0.30815156467483495,-0.07488068809096093,9.318515747466796,0.0003142956192067996,0.0008747099337143363,0.0020875774100025946
1778454622195905455,0.2958173174572767,-0.06287864101573509,9.300299698528445,-0.0028218428804705105,-0.00035247469659417663,0.002769346649062879
1778454622216420848,0.2985073583297493,-0.06771457775252626,9.318340908233957,0.0008597110104550266,-0.0013069516312785787,-0.00404834574153997
1778454622236796093,0.2913857002928607,-0.07611581041978288,9.320658722514121,-0.00023111977204142917,-0.00028429777268815237,-9.408415499031781e-05
1778454622257233430,0.2876525370246904,-0.07131277741328701,9.313390848190155,-0.002003719793598171,0.0003974714663721318,0.0008603927796940812
1778454622277732972,0.30215725303398555,-0.07010936304073367,9.320803565424898,-0.0008447120871956856,-0.0011705977834665197,-0.0013212687852988303
1778454622298201976,0.30211657418842564,-0.05335733747611232,9.324339078784831,0.0002461186953007701,0.001692833020586676,0.0003831543123518819
1778454622318652943,0.30452410100673244,-0.07966631660200046,9.314880469649628,-0.0011855967067258277,0.00032929454246610756,0.0018148697143784802
1778454622339081465,0.29594887386888824,-0.06768831655144764,9.3075119370983,-0.0011855967067258277,0.0021700714879288735,-9.408415499031781e-05
1778454622359621858,0.30083599779593906,-0.06410800767357905,9.314767466581456,-0.0015264813262559698,-0.0015114824029966618,0.0005195081601639387
1778454622379978436,0.2948165867948437,-0.07368387042011687,9.309913651894695,-0.0028218428804705105,0.0015564791727746205,-9.408415499031781e-05
1778454622400455774,0.30216219371199093,-0.07728636688954843,9.318431846950567,-0.0005038274676655435,-0.0004206516205002078,0.0009967466275061384
1778454622421179055,0.29741252231096427,-0.07730545344646716,9.32195495948939,-0.0031627275000006526,0.0005338253141841942,0.0018830466382845088
1778454622441444337,0.293526886497644,-0.07964873473489631,9.301523486058176,-0.001458304402349942,-0.0006933593161243187,0.0007240389318820244
1778454622461870286,0.30932966925755423,-0.06769806011530849,9.319706913344392,-0.000640181315477599,0.0006020022380902185,-0.000844030317956631
1778454622482679808,0.2948165867948437,-0.07368387042011687,9.309913651894695,-0.0010492428589137705,0.0009428868576203606,0.0014058081709423095
1778454622502756386,0.299751998569572,-0.07250498935967231,9.319576202814677,-0.002344604413128313,0.0007383560859022739,0.0028375235729689078
1778454622523285057,0.29978108317141616,-0.08088270711719908,9.318407995058761,-0.0021400736414102263,-0.00014794392487608998,-0.0009803841657686882
1778454622543744987,0.2950089807342555,-0.07372137987487093,9.323103728223812,-0.0007765351632896562,5.6586846841989724e-05,-0.0006394995462385453
1778454622564273325,0.2972319206003775,-0.060526148278388314,9.315897690064512,-0.0020718967175041986,0.0015564791727746205,0.0002468004645398247
1778454622584807958,0.298509828668752,-0.07130307967693361,9.317155048996794,-0.0005720043915715713,-0.0006251823922182945,0.0005195081601639387
1778454622605357611,0.29952709425290613,-0.07604916192846117,9.302802071552192,-0.002685489032658455,0.0016246560966806448,-0.001525799557016916
1778454622625889392,0.30567806166561295,-0.07128297471763595,9.314868124808813,0.00045064946701885676,-0.0017160131747147485,-0.0009803841657686882
1778454622646312008,0.2959688345660193,-0.07128022842628717,9.307525175709237,0.0009960648582670838,-0.004238559359237802,0.00011044661672776797
1778454622666790382,0.29737335836799983,-0.07968983151173031,9.31836649168571,-0.003571789043436826,0.0006020022380902185,0.0022921081817206795
1778454622687294627,0.2986123004785194,-0.06773503745511938,9.325535495322567,0.0014051264017032553,-0.0009660670117484366,0.0016785158665664232
1778454622707726872,0.3081156285221711,-0.09042176989557371,9.310179429844142,-0.0001629428481353997,-0.0019205439464328351,0.0018830466382845088
1778454622728240857,0.3105585320269534,-0.06650536188148748,9.322119241421655,0.00045064946701885676,0.001420125324962565,-2.5907231084289217e-05
1778454622748749787,0.2961829020902671,-0.06892994986534595,9.323104621993933,-0.001458304402349942,-0.0023977824137750327,0.003314762040311107
1778454622769085180,0.3007135652890406,-0.06408413802055368,9.306373781644744,-0.0013901274784439144,-0.0007615362400303499,0.002019400486096566
1778454622789623166,0.29720510835242675,-0.08085303596568827,9.306379926075005,-0.0005038274676655435,-0.0029431978050232614,0.0022921081817206795
1778454622810014095,0.30935628352039557,-0.07248727594842791,9.319724564825641,0.0008597110104550266,-0.00014794392487608998,0.0011331004753181951
1778454622830534137,0.310553591348948,-0.05932835803267272,9.324490959895984,-9.476592422937198e-05,-0.0013069516312785787,0.0020875774100025946
1778454622850875752,0.2983474747675914,-0.06409538627422923,9.308734886838208,-0.0008447120871956856,-0.0009660670117484366,-0.0007758533940506024
1778454622871420460,0.30193900228303006,-0.07485083956780242,9.304033847032725,-0.0007083582393836284,-0.000488828544406239,0.0029057004968749364
1778454622891835019,0.2947175407604862,-0.0652925128608613,9.306285468258205,0.000587003314830914,-0.0013069516312785787,-0.00036679185061443175
1778454622912272634,0.29940980040912246,-0.058086192603831244,9.301536780649409,0.0012687725538911981,0.000465648390278163,4.2269692821739376e-05
1778454622932770101,0.29868796004033604,-0.08449388292060511,9.324398177658836,-0.0007083582393836284,0.00019294069465405211,0.0024284620295327367
1778454622953200494,0.2961245349014695,-0.07729061787071179,9.315940924997511,-0.0027536659565644828,0.0006020022380902185,0.0012012773992242237
1778454622973696998,0.29847313506479034,-0.07727595966660417,9.312380721955948,-0.001458304402349942,-0.0006933593161243187,0.0016103389426603948
1778454622994117910,0.30211143552531083,-0.071296437147717,9.317210684750906,0.0008597110104550266,-0.0036249670440835456,0.0003831543123518819
1778454623014553988,0.29720853412783654,-0.06889363618461852,9.311132188764288,-0.002344604413128313,0.0034654330421434176,-0.00023043800280237456
1778454623034997547,0.2938025490009901,-0.08209449190793888,9.319518779520322,-0.0017991890218800842,0.00032929454246610756,0.0012012773992242237
1778454623055433163,0.29714940948774116,-0.06768610237504208,9.307530482349671,-0.0017991890218800842,0.0007383560859022739,0.0009285697036001098
1778454623075931056,0.3020289244126745,-0.07845639124437076,9.308843477036067,-0.0017991890218800842,-0.0015114824029966618,-0.001184914937486774
1778454623096406504,0.3031821276202572,-0.06050484754506402,9.31239312277706,0.0008597110104550266,-0.0004206516205002078,-0.0005713226223325175
1778454623116816823,0.3033420111824151,-0.06412403902336106,9.321999144172807,-0.000640181315477599,0.001420125324962565,0.0021557543339086227
1778454623137231864,0.30568889845803093,-0.07008908070978825,9.316062809786603,-0.0017991890218800842,0.0018973637923047626,-0.001184914937486774
1778454623157681498,0.29025265576751846,-0.07254316247350984,9.326622427892323,-0.001458304402349942,0.0003974714663721318,0.0007240389318820244
1778454623178131020,0.30210972263760594,-0.07727613703825187,9.314834553406262,-0.004458089054215197,0.0024427791835529913,-0.004252876513258057
1778454623198599728,0.3165062687078304,-0.06289555922375578,9.31980053337137,-0.0015264813262559698,0.000465648390278163,0.000792215855788053
1778454623219055899,0.3058729259440276,-0.07490898609679736,9.326872341900765,-0.0005720043915715713,0.0015564791727746205,0.0022239312578146513
1778454623239561125,0.3043326625037278,-0.0640809054417692,9.307628515246957,-2.658900032334252e-05,0.00012476377074802092,0.0005195081601639387
1778454623260043184,0.28762345242284626,-0.06293505965576024,9.31455905594607,-0.0024809582609403684,0.0008065330098083051,0.0012012773992242237
1778454623280583411,0.29841496586110206,-0.06052052415155057,9.31471713746778,-0.003571789043436826,-0.00028429777268815237,-0.0019348611004530868
1778454623301017267,0.3081357872044116,-0.06889757824999387,9.319692780963335,-0.0027536659565644828,0.000465648390278163,0.0012012773992242237
1778454623321579308,0.30082420556711387,-0.08084980338690378,9.307634659677216,-0.0020718967175041986,-0.00348861319627149,0.0015421620187543662
1778454623342035441,0.29241969878384544,-0.07129710080680046,9.311066833499432,-0.0005720043915715713,0.0008065330098083051,0.0006558620079759958
1778454623362518612,0.2984364414608287,-0.08324883965627461,9.307606394915101,-0.0002992966959474569,-1.1590077064034532e-05,0.0002468004645398247
1778454623383054875,0.30094074195959974,-0.08924457089659155,9.31246194116181,0.0001779417713947424,-0.0007615362400303499,4.2269692821739376e-05
1778454623403516361,0.2973883783871255,-0.07610473953775515,9.320751448770976,-0.0011174197828198,0.002306425335740936,-0.0007076764701445738
1778454623423945717,0.30699095045024416,-0.08206672601704562,9.318523679437298,-0.0011174197828198,-0.0025341362615870916,0.0021557543339086227
1778454623444395573,0.29832086050474993,-0.05930617044110981,9.308717235356958,-0.001458304402349942,0.003942671509485615,0.0004513312362579105
1778454623464825262,0.2984332136705282,-0.07009213591692504,9.312354244734076,-0.0031627275000006526,-0.0005570054683122633,0.002019400486096566
1778454623485257618,0.30483721456533797,-0.0857073956003147,9.334088099570813,0.0007915340865489989,0.0027836638030831334,0.0016785158665664232
1778454623505695251,0.3045066106486042,-0.07966290665156828,9.313681371801527,-9.476592422937198e-05,0.002306425335740936,0.0024966389534387652
1778454623526215218,0.30325455939177337,-0.06410698927120012,9.3160036549323,-0.003571789043436826,-0.00021612084878212118,-0.00043496877452046034
1778454623546727537,0.2997162604020175,-0.06292996764386566,9.320739997700283,-0.0004356505437595141,-0.0011705977834665197,0.0009285697036001098
1778454623567176152,0.3045400764622652,-0.06053332292254815,9.323203548661342,-0.002208250565316254,0.0011474176293384472,0.0009967466275061384
1778454623587715527,0.31063761736417994,-0.0713048075659034,9.32573418644721,-0.0045262659781212244,0.00026111761856007637,0.0018830466382845088
1778454623608075198,0.30095177673712714,-0.06293457336832448,9.323156738647855,-0.0024127813370343407,-0.0010342439356544608,0.0015421620187543662
1778454623628674813,0.2960804302804997,-0.07249799208716023,9.31472417566816,-0.000640181315477599,-0.00021612084878212118,0.0004513312362579105
1778454623649055835,0.29846229827237236,-0.0784698536744518,9.311186036978157,-0.0021400736414102263,0.00019294069465405211,0.0012012773992242237
1778454623669430432,0.3033994229348056,-0.07131127272347237,9.323224719242782,-0.0024127813370343407,-0.0022614285659629772,0.0028375235729689078
1778454623689915880,0.2923830051798838,-0.0772699807964709,9.306292506458586,0.0012005956299851704,0.0008747099337143363,0.0014058081709423095
1778454623710331088,0.3092405045792075,-0.07366071025368243,9.311335292759242,-0.0027536659565644828,-0.00021612084878212118,0.0016785158665664232
1778454623730858018,0.29847731829149804,-0.07488476170047664,9.313570994063426,0.0005188263909248845,-0.0013751285551846064,0.0016785158665664232
1778454623751219559,0.3021705601654062,-0.07250397095729338,9.320812391165521,-0.0011855967067258277,-0.0005570054683122633,-0.001525799557016916
1778454623771674230,0.28804549337182006,-0.09172150391095951,9.332651432555087,-0.0013901274784439144,-1.1590077064034532e-05,-0.0009803841657686882
1778454623792153049,0.28525146578698446,-0.07131720576609812,9.313353757687413,0.0001779417713947424,-0.001102420859560492,-0.0007076764701445738
1778454623812541849,0.30469159357100795,-0.06893491033310023,9.330429025842138,-0.0005720043915715713,-0.0027386670333051748,0.0007240389318820244
1778454623832994390,0.30220135765495526,-0.07490198882428528,9.322020314754248,-0.005003504445463422,0.0006020022380902185,-0.00023043800280237456
1778454623853395042,0.31283792820905865,-0.07604526569059328,9.310200656405877,0.000587003314830914,-0.00028429777268815237,0.0020875774100025946
1778454623873903102,0.2878190741525586,-0.07612927284986393,9.323001282456213,-0.0029581967282825694,-0.0005570054683122633,0.0024284620295327367
1778454623894292421,0.29604963279095065,-0.07009997422016834,9.313516252079435,-0.0028218428804705105,-0.0014433054790906341,0.001337631247036281
1778454623914695258,0.2950747589400614,-0.0761262176427272,9.326709847508742,-0.0021400736414102263,-0.00035247469659417663,-0.0005713226223325175
1778454623935153503,0.29632282495529394,-0.06895722946880345,9.332697404778747,-0.0028218428804705105,-0.0017841900986207762,0.0007240389318820244
1778454623955557155,0.2996628338912253,-0.07846763949804625,9.311204582229527,0.000587003314830914,-0.0006933593161243187,0.0005195081601639387
1778454623976030141,0.2902326950703874,-0.0689512505986703,9.326609189281386,-0.0028218428804705105,0.001692833020586676,0.0024966389534387652
1778454623996432441,0.2985548887261289,-0.06054780375500807,9.324309920252592,-0.0017310120979740565,0.0013519484010565339,0.002360285105626708
1778454624016911260,0.31189480728412566,-0.06892162527466694,9.330540297350362,-0.0004356505437595141,0.0007383560859022739,0.0018830466382845088
1778454624037387412,0.3116590661750417,-0.0736596918513035,9.312571481110089,0.000927887934361056,-0.002329605489869005,-9.408415499031781e-05
1778454624057833823,0.297300169145186,-0.06651948797065194,9.318317950112275,-0.001458304402349942,0.0016246560966806448,0.0033829389642171357
1778454624078254346,0.29395673443384474,-0.06896847772247894,9.335058509972209,-0.0004356505437595141,-0.0010342439356544608,0.0016785158665664232
1778454624098697831,0.2878791542290612,-0.06178890495396322,9.332541110797282,0.0015414802495153125,-0.002806843957211206,0.0022921081817206795
1778454624119168854,0.2912415942011263,-0.0784797287824529,9.309875667621831,-0.0019355428696921397,0.0014883022488685893,0.0009967466275061384
1778454624139570043,0.3007958784165675,-0.08204028744431924,9.305240876851327,-0.0011174197828198,5.6586846841989724e-05,0.0012012773992242237
1778454624159967195,0.29137239316144004,-0.07372120250322323,9.320649896773498,-0.0010492428589137705,0.0006701791619962497,0.0017466927904724518
1778454624180458218,0.2937552165897198,-0.06414516238503765,9.323049880009943,-0.0004356505437595141,0.00019294069465405211,0.0020875774100025946
1778454624200906888,0.30827646752073623,-0.07849305966839365,9.325723573166343,0.0017460110212333974,-0.0006933593161243187,0.0002468004645398247
1778454624221460781,0.30953441489197964,-0.08567807919209935,9.326967693487687,-2.658900032334252e-05,-0.003965851663613688,-0.0009803841657686882
1778454624241903619,0.29019771435413066,-0.06894443069780593,9.324210993585183,4.1587923582685205e-05,-0.0011705977834665197,0.0012012773992242237
1778454624262278326,0.29130414461663157,-0.06772786281095955,9.318229636725732,-0.0013219505545378832,0.0003974714663721318,-0.0036392841981038
1778454624282751367,0.31168245264758265,-0.06529220394507329,9.317336982410309,-0.0016628351740680287,-0.0015114824029966618,0.0003831543123518819
1778454624303148279,0.3045957753269508,-0.07370025651319434,9.322052992386675,-0.0038444967390609402,-0.0033522593484594312,0.0022239312578146513
1778454624323665968,0.29868967292804094,-0.07851418303007024,9.32677430900348,-0.003503612119530798,-1.1590077064034532e-05,0.0007240389318820244
1778454624344084231,0.3010183123942307,-0.07490761295112303,9.323200867350977,-0.0024127813370343407,-0.0006933593161243187,-0.0030256918829495434
1778454624364603828,0.3023062998037255,-0.0749224485268784,9.329214901842859,-0.0028900198043765417,0.0006020022380902185,0.0005876850840699673
1778454624385088999,0.30833407725823603,-0.06056418984808559,9.336449260744573,-0.0019355428696921397,0.0016246560966806448,0.002564815877344794
1778454624405543040,0.2950738035036542,-0.09167411934820435,9.320771725582293,-0.0016628351740680287,0.00019294069465405211,0.0004513312362579105
1778454624425938359,0.30100500526280993,-0.07251300503456332,9.323192041610351,-0.0001629428481353997,-0.0011705977834665197,0.0021557543339086227
1778454624446367974,0.29131326852134465,-0.07251366869364678,9.31704819035888,-0.002344604413128313,-0.0007615362400303499,-0.0016621534048289733
1778454624466873959,0.299931842828861,-0.07971609271280888,9.329195462821366,0.0003142956192067996,-0.0008297131639363811,-0.001525799557016916
1778454624487385482,0.30456991851540716,-0.07847924249501714,9.31847335032362,-0.0005720043915715713,0.0008747099337143363,-0.0006394995462385453
1778454624507892245,0.30457752751752476,-0.06412864474781987,9.32441588512038,4.1587923582685205e-05,-0.0045112670548619165,0.0009285697036001098
1778454624528273916,0.29725606452421627,-0.061726862187100384,9.317101200782925,-0.0024127813370343407,5.6586846841989724e-05,-0.0005713226223325175
1778454624548641235,0.2959005860212107,-0.06528688873402355,9.305104915661474,-0.0005038274676655435,-0.003011374728929289,-0.0014576226331108875
1778454624569051331,0.30342185397093935,-0.07849168652271926,9.322052098616554,0.0003142956192067996,-0.003147728576741348,0.0004513312362579105
1778454624589550391,0.29847903117920294,-0.06890506180994171,9.315947125408067,-0.0024127813370343407,-0.00014794392487608998,0.0022921081817206795
1778454624609949691,0.305656388080777,-0.07367076273333129,9.312478754853235,-0.0015264813262559698,-0.003011374728929289,0.0003149773884458533
1778454624630428658,0.30825897716260786,-0.07848964971796146,9.32452447531824,-0.0008447120871956856,0.0012837714771505027,0.0016103389426603948
1778454624650826532,0.29731765950331435,-0.06652289792108412,9.319517047960376,-0.0019355428696921397,0.0012155945532444784,-0.0013212687852988303
1778454624671326388,0.30458246819553014,-0.07130564859663463,9.322044166646052,-0.000640181315477599,0.00298819457480122,-0.0007758533940506024
1778454624691814818,0.2973467441051585,-0.07490061567861095,9.318348840204461,-0.0001629428481353997,0.001965540716210787,-0.0010485610896747168
1778454624712155618,0.3008251610035211,-0.06530190168142669,9.313572781603668,-0.0007083582393836284,0.0008747099337143363,-0.0009122072418626596
1778454624732592048,0.305721408835285,-0.06650739868624528,9.319646864719969,0.00010976484748871293,-0.0013751285551846064,-0.0017985072526410305
1778454624753044219,0.303712536493411,-0.07735235172178667,9.34243234916397,-2.658900032334252e-05,0.0010110637815263918,0.0002468004645398247
1778454624773407982,0.2974058687452539,-0.07610814948818734,9.321950546619076,-0.0027536659565644828,-0.0008297131639363811,-0.0006394995462385453
1778454624793899542,0.30809985105174775,-0.08443866005460665,9.311356463340681,-0.0011855967067258277,0.0025109561074590156,-0.0006394995462385453
1778454624814287583,0.30100500526280993,-0.07251300503456332,9.323192041610351,-0.0024127813370343407,-0.0008297131639363811,-0.0017303303287350019
1778454624834786717,0.3045933049879481,-0.07011175458878693,9.32323885162384,-0.0008447120871956856,0.003601786889955473,0.0008603927796940812
1778454624855204295,0.29968355203965413,-0.09162775318782801,9.307655830258657,-0.0024809582609403684,0.00012476377074802092,0.0009285697036001098
1778454624875611873,0.29857142364785005,-0.0760991154109174,9.319570896174243,-0.0001629428481353997,0.000465648390278163,-0.00023043800280237456
1778454624896000877,0.3020890044891771,-0.06411602334847005,9.318383305377132,-0.0031627275000006526,0.0037381407377675285,-0.0016621534048289733
1778454624916413399,0.29974363211615673,-0.07728738529192736,9.317195658599724,-0.0010492428589137705,0.0024427791835529913,0.00017862354063379613
1778454624936911496,0.29752830125215235,-0.07613201914121265,9.330344231555788,-0.0004356505437595141,5.6586846841989724e-05,0.0015421620187543662
1778454624957298463,0.30326197040878144,-0.07487249504442223,9.312446077220807,-0.0053443890649935676,0.0012155945532444784,0.002019400486096566
1778454624977791208,0.2973400905394481,-0.07370331172033107,9.318344427334148,0.00010976484748871293,0.0025109561074590156,-0.0010485610896747168
1778454624998234823,0.31273222860899075,-0.06645660417305788,9.306568059899076,-0.0009810659350077428,0.0006701791619962497,4.2269692821739376e-05
1778454625018641864,0.29737602669211205,-0.05816222991571829,9.326680744956802,-0.0007765351632896562,-0.00021612084878212118,0.0012012773992242237
1778454625039116535,0.2939358183003066,-0.0809244675531165,9.329107149434824,-0.0007083582393836284,-0.0010342439356544608,0.0004513312362579105
1778454625059579057,0.2866968664196343,-0.07136273089574319,9.330159672812204,0.000587003314830914,0.000465648390278163,-0.00023043800280237456
1778454625080008024,0.2949882625858268,-0.06056126618508911,9.326652480194683,-0.0019355428696921397,0.0008747099337143363,-0.002207568796077201
1778454625100476547,0.295174760410826,-0.06896967349650562,9.336276153071681,-0.0007765351632896562,0.0012155945532444784,-2.5907231084289217e-05
1778454625121116514,0.2973551105585738,-0.0701182197463559,9.320729384419415,0.00045064946701885676,-0.00014794392487608998,-0.00023043800280237456
1778454625141327314,0.2865419235354819,-0.07492054326626091,9.318181932942124,-0.0024127813370343407,0.0010110637815263918,-0.0012530918613928017
1778454625161770373,0.2901836497714122,-0.056981620966303936,9.327764158426366,-0.001867365945786112,-0.0010342439356544608,-0.00043496877452046034
1778454625182269155,0.30569308168473863,-0.06769788274366079,9.317253081894078,-0.0032990813478127115,0.0018291868683987314,-0.002071214948265144
1778454625202709992,0.2864012432191573,-0.06532506184786113,9.31215114073912,-0.0002992966959474569,-0.0011705977834665197,0.0028375235729689078
1778454625223132811,0.28663089022871924,-0.09407399664830635,9.317053441019018,-0.0008447120871956856,0.00019294069465405211,-2.5907231084289217e-05
1778454625243541723,0.3142333281063262,-0.07966906289334919,9.322223418749202,-0.0007083582393836284,0.0006020022380902185,0.001337631247036281
1778454625263956467,0.30424768105208877,-0.06765235761401561,9.300447166769287,-0.0033672582717187392,-0.00014794392487608998,0.0002468004645398247
1778454625284478879,0.29385179228507463,-0.06894801801988582,9.3278639228836,-0.0005038274676655435,5.6586846841989724e-05,0.0012694543231302523
1778454625305028698,0.3008724934147913,-0.08325123120432792,9.310041681114045,-0.0015946582501619976,-0.0004206516205002078,0.0006558620079759958
1778454625325379276,0.29957119887387595,-0.08084178771201278,9.304018820881543,-0.003094550576094625,-0.00035247469659417663,0.001337631247036281
1778454625345771891,0.3046105973609671,-0.09523126805963855,9.314937836963686,-0.0007083582393836284,-1.1590077064034532e-05,-0.0030256918829495434
1778454625366161599,0.2862930732800867,-0.05214789840591838,9.30970440346948,-0.0038444967390609402,-0.0005570054683122633,0.0020875774100025946
1778454625386707343,0.2913349421061806,-0.07012588067795145,9.319437560314459,-0.0029581967282825694,-0.0013069516312785787,-9.408415499031781e-05
1778454625407172884,0.3070301143932085,-0.07968234795178247,9.32211214724098,0.0009960648582670838,-0.0036931439679895733,0.0004513312362579105
1778454625427698536,0.2987147722882868,-0.06416699523330516,9.33391594164834,-0.003026373652188597,0.0008747099337143363,0.0003831543123518819
1778454625448053652,0.29515213138958285,-0.08690536321767806,9.327948661189653,0.0002461186953007701,0.0007383560859022739,-0.00029861492670840315
1778454625468588137,0.306985252320941,-0.06532152035328864,9.324457388493435,-0.000640181315477599,-0.001102420859560492,0.0009967466275061384
1778454625489151789,0.28683583384825395,-0.08693791220467784,9.333814333670567,-0.0016628351740680287,-0.0013751285551846064,0.0005195081601639387
1778454625509505627,0.30715597267551686,-0.06774681782373804,9.335258094866973,-0.0038444967390609402,0.002033717640116818,-0.00016226107889634597
1778454625529918186,0.29626274487879134,-0.08329759736470421,9.32315757643768,-0.0011174197828198,0.001420125324962565,-0.002071214948265144
1778454625550371246,0.2984324562192304,-0.06052393410198276,9.315916235315882,-0.0007765351632896562,0.0006020022380902185,-0.002412099567795287
1778454625570911379,0.31180145937907133,-0.0772754733791684,9.320978404657735,-0.00466261982593328,0.0009428868576203606,0.0029057004968749364
1778454625591426883,0.30717175014594034,-0.0737299276647051,9.334081061370433,0.0016096571734213402,-0.00021612084878212118,-0.0024802764917013147
1778454625611772072,0.2972235541469622,-0.06530854421064336,9.313517145849557,-0.0002992966959474569,0.00032929454246610756,0.0019512235621905374
1778454625632185336,0.670993863078064,1.5438865247234954,8.718888293178988,0.07060470416632218,-0.006488397848136745,0.01640473143026858
1778454625652540543,0.568804259988255,0.2635266222369183,8.38864742577157,-0.043455289528463496,0.011305779291336693,0.03447161626536613
1778454625672951214,0.25772180208221285,0.7213173243712385,9.288496316498861,0.04326575768000475,-0.007851936326257313,0.005496423605304019
1778454625693370496,0.5574250478390527,1.4811682118527423,9.220861375379153,0.07360448881818743,-0.08755076037240463,-0.11142700089353486
1778454625713791722,1.0541452581396022,2.63987821989784,9.645150795668012,-0.014820981487931529,0.02896360258299808,-0.1665821323335119
1778454625734926504,0.28465214877240697,1.4481861349397043,9.269512510881565,-0.039364674094101784,0.007010633085256901,-0.1641277630728949
1778454625754601971,0.9582375863134193,2.3822823602034036,9.22620938756383,0.036652596061119994,-0.049576213756746756,-0.07624770815802415
1778454625775363197,0.617888057707486,2.402576985745512,9.02307200819663,-0.13065357520427395,0.1034809804122872,-0.20326131739495523
1778454625795772923,0.6883018457326607,0.46389905379136415,10.404981333840809,0.09535292754421053,-0.06982476015683722,-0.10222311616622101
1778454625816527872,0.9989482324324829,1.1356230858521361,7.677661652714835,-0.051841051168905,0.09564063416309393,-0.09581448531905433
1778454625836620005,0.4210761938135764,3.266069354150629,12.564216459373112,-0.23319166875894082,0.05752973369962402,-0.16678666310523
1778454625857276065,-1.1503145332517022,-0.7117414206632855,8.739621084977477,0.06317341946056507,-0.07868776026462093,-0.08708783905908268
1778454625877688810,0.8870565336705382,2.500683096968582,10.893433991620816,-0.04181904335471881,0.09304991105466487,-0.04911329244342481
1778454625898117128,-0.6714646645997732,0.47596611220525203,12.396734746172337,0.02608517285568557,0.11888896521504966,-0.003434753426385714
1778454625918517151,-0.7760440874122261,0.33405159656388167,8.3783994397804,-0.03322875094255922,0.02439574868129417,0.07415058597867472
1778454625938893470,-0.7130031973010581,1.4647900857363385,9.919377331882737,-0.037728427920357105,-0.044599298311606674,0.005564600529210048
1778454625959585011,-0.037288425095197086,-0.2748695128521834,8.270927905322894,-0.09895130558797069,-0.10514040674015998,0.07776396294569422
1778454625979981904,-0.4948454250486185,0.13276132328233547,5.277339343645542,-0.008548704488576905,-0.07118829863495779,0.022336123810093058
1778454626000458519,-0.6020119121786489,-0.9985157805977365,5.979863662750115,-0.11074591342371364,0.09243631873951061,-0.08729236983080077
1778454626020959060,0.6471347280807727,0.4950904749575222,13.275395432979257,0.2685223142655229,-0.17018119214651117,0.016200200658550493
1778454626041346879,-3.5077902559108685,2.149040185932653,11.21160104499485,-0.2680982537988274,-0.049439859908934694,0.036039685515204783
1778454626061763253,-2.287027196956213,-3.1067303227230934,4.371783313246938,0.17627893622066637,-0.04930350606112264,-0.028387507575992142
1778454626082305535,-0.6278250273196987,-0.6711384112870891,8.286005657462793,-0.08954289008893876,-0.11154903758732665,-0.001184914937486774
1778454626102760243,1.470126820753892,-2.071694652972133,9.148254278214734,0.18691453635000682,0.23874399744184777,-0.06608934649602591
1778454626123251117,1.1806727334703357,0.3720951579047869,7.257639164227965,-0.1288127982588112,-0.17577169990680552,-0.11197241628478308
1778454626143656362,2.9077176240662572,-0.8142747892535793,10.423501752803412,0.03201656523551005,0.11384387284600356,-0.09826885457967136
1778454626164042199,1.229778101933512,2.132596863124479,10.880874441496589,0.19393675951232775,-0.36625802530024915,-0.265029610453817
1778454626184531407,-0.900655819129194,-0.21133976967737392,8.928693181775902,-0.10242832870717815,-0.0465764291048815,-0.07263433119100464
1778454626204976448,-0.6630524694856905,0.7485377172903582,8.79344364709994,0.06105993481947819,0.011646663910866835,-0.015297538186034671
1778454626225427600,-2.061182232125649,-0.6948684078290485,7.684912027988791,-0.09336079782767635,0.032917864169547735,-0.06472580801790534
1778454626245902696,0.32690032756783716,0.647898030606209,10.301629795956705,-0.10406457488092283,0.03837201808203001,0.018927277614791634
1778454626266291163,0.053392175427541405,0.5456176904018408,8.214230208256005,-0.0028218428804705105,-0.23978983145456628,-0.08872408523282736
1778454626286809945,1.030919712230978,0.29459179052529755,9.966125195547228,0.012927026541822071,0.17779382746985828,-0.024024184446006323
1778454626307310301,-0.13075523283338103,0.5831986260263662,9.182289461151539,0.008222818792306106,0.018259825529751604,-0.05306755402997446
1778454626327770453,-0.2288776969158291,-0.5101372202033045,10.437470808762015,-0.05947686664638019,0.08780028791390068,0.00958703903966573
1778454626348161253,0.9403716700329253,0.11540393037946695,11.015533075048141,-0.026547412399768426,-0.028850428889314092,0.03167636238521896
1778454626368630572,-0.9382642321511786,-0.899966360099167,9.382544248014586,0.07176371187272466,0.026577410246287077,0.006246369768270333
1778454626389047928,-0.8805964658925857,1.4586424232931519,9.86526039882542,-0.1286082674870931,-0.21245088496824885,-0.06983907731085748
1778454626409434506,0.4942915120902066,-1.5584688547981367,11.153727464481893,-0.12076792123789983,0.11418475746553369,-0.013388584316665874
1778454626429991214,-0.7553054607750662,-0.7052609573144042,9.244409428758559,0.06651408873196046,-0.04903079836549853,0.0014058081709423095
1778454626450450329,3.4606252212188497,3.3970165447273732,11.49102516646384,0.05983275018916968,0.07641474162159392,0.014700308332617866
1778454626470909203,0.8058538122930404,-3.679525976220752,9.493830441924699,0.20014085958777633,0.26560570546082296,-0.00991156119745842
1778454626491275577,-0.9586604420835241,-0.9543725821145195,7.467916899620172,-0.054295420429522026,-0.1461147380076831,-0.00036679185061443175
1778454626511647304,2.647727337252596,0.6554484849783984,9.198594444678681,0.0658323194929002,-0.013783328706081791,0.05656093961091936
1778454626532083104,1.2015963938601937,0.6042794225936727,6.886692785975839,-0.06418107439589615,0.0038063176616735597,0.08199093222786799
1778454626552559404,0.9124057689155002,0.2795550692820446,12.206132359916706,-0.09458798245798487,-0.09982260667548976,-0.083065400548627
1778454626573004890,-0.4633392516127669,-0.9732368339121547,13.529656698488472,0.09733005833748536,0.10409457272744146,0.03999394710175444
1778454626593496708,1.645762863597225,-0.9738017823929022,8.024925295402427,0.0763997426983346,-0.007920113250163341,-0.06288503107244256
1778454626613937879,1.3287570175425725,-1.1290433191048463,10.593242666071166,-0.19276275288266592,0.08957288793545742,-0.05143130785622978
1778454626634371031,-1.2345359762082044,-0.20532872952264694,6.198604599325499,-0.015025512259649612,-0.12293458387963341,0.11253419413776876
1778454626654767276,1.4147834062953406,2.3056992815352277,13.26395753895222,0.0037913187384142535,-0.07916499873196312,-0.037114153835963795
1778454626675219317,-1.4150141955080795,0.4030357471176042,8.95209942909841,0.0632415963844711,0.14472801937543445,0.10762545561653471
1778454626695682654,0.15889414185324155,0.31235396098501317,7.376330841571236,0.08124030429566263,-0.17222649986369204,0.0064509005399884176
1778454626716078510,2.001888245311762,-0.8614922118346058,10.84364405897611,-0.16003782940777223,0.15059123483135292,-0.09540542377561816
1778454626736582347,-0.2991685478465921,-0.27604381620053053,8.09065916022623,0.01163166498760753,-0.09218679119801457,0.057788124241227874
1778454626757073129,0.315685522751323,0.6489031249529738,9.944205910965573,-0.039705558713631926,-0.030350321215246716,0.12896483279912163
1778454626777407892,-0.17114599067558556,0.18411950895840173,10.954950835650289,0.038561549930488784,-0.08298290647070072,-0.0071163073173112525
1778454626797898878,-0.13947198212650713,-0.5861995528538094,9.048500585149803,-0.03152432784490851,0.02460027945301225,-0.053408438649504605
1778454626818278363,2.589584279486648,-2.011932227063073,7.001477805032304,0.106056704597457,0.12454764989925002,0.1233743250388273
1778454626838733904,0.8828204839048804,0.40013971724218417,10.221201785758595,0.04619736540796398,-0.07943770642758724,-0.018910915153054184
1778454626859146075,1.1786417087440508,-0.7724866749848436,8.910099036117874,-0.05749973585310536,0.1737713889594026,0.02710850848351505
1778454626879674616,-1.9576660724068167,-0.6364817137072463,11.186842201897957,0.20839026738040578,-0.0874825834484986,-0.034523430727534714
1778454626902200880,-1.2435587708624947,2.7850296531024874,7.20309702937881,-0.1436753676703254,0.14929587327713836,0.016472908354174608
1778454626921226606,-0.22029144457671446,-1.080046215970152,7.104550960886161,0.17961960549206174,0.3356915832362203,-0.02177434595710738
1778454626941195035,-1.1604840473337656,-0.6652702315556529,7.976850122634681,-0.054909012744676286,-0.0484853829742503,0.04476633177517643
1778454626961593854,2.1867531675295218,0.41630654878356227,7.950358730841384,0.06460513486259167,0.18317980445843454,0.0920811169659602
1778454626982079229,0.060929771279292916,1.1887957954398087,8.97447790255034,0.09371668137046583,-0.0460991906375393,-0.008207138099807708
1778454627002589047,0.028992544966129352,0.18708347340477832,7.969386650712798,-0.11258669036917639,0.019418833236154086,0.026085854624924625
1778454627022995866,0.7197094787950221,-0.9681737892532043,10.042585586270224,0.12773696639957405,0.11343481130256738,0.05362933188296014
1778454627043385389,1.8026115555756024,-0.46375297187115294,6.4610592505664215,0.16980212844959364,-0.08952789116567945,-0.013933999707914103
1778454627063849596,0.4573899303160208,-2.580800012917617,8.152606283729476,-0.07393037451445823,0.11002596510726595,0.02397236998383774
1778454627084285008,-2.1244740282501504,-1.8618228679343474,8.749086220654858,0.18180126705705468,-0.18633912311223993,0.043198262525337774
1778454627104711308,-0.469237863203111,0.2068517094127928,11.18163360483364,-0.16910536028727402,-0.03757707514928574,-0.11360866245852777
1778454627125146182,-0.24447499520086194,-0.4368267909561947,7.8295426410499145,-0.10358733641358063,0.19599706615276788,-0.042841015444070187
1778454627146282520,0.38611128462113675,1.465439744512832,8.331147187657743,-0.05436359735342805,0.02241861788801934,0.06651477050119953
1778454627166081950,1.1919433950347684,1.4300030649231898,7.442219092040371,-0.036842127909578734,0.12679748838814897,0.022336123810093058
1778454627186578583,-1.5802776336001025,-0.8954897248039018,8.652118400473674,0.06876392722085942,-0.18068043842803957,-0.025660430619751005
1778454627207129735,-0.7594500352194908,0.001456628437711882,9.968283398220963,-0.04700048957157698,0.010010417737122156,0.03938035478660018
1778454627227555758,1.1251817215375466,0.7575567676213228,11.832470737328832,0.06535508102555798,0.028554541039561905,0.016609262201986663
1778454627247977669,0.7067047347001504,0.35832648647417903,9.239198511126117,-0.0855886285023891,-0.017737590292631444,-0.057362700236054255
1778454627268352062,1.095014072058987,0.5194382806834597,9.260204119973666,-0.17380956803678999,0.10191291116244855,-0.05354479249731666
1778454627288854399,-0.41931330479242823,0.11246938857644695,8.641256518933478,0.01844935737821038,0.1017765573146365,-0.08251998515737877
1778454627309212403,-0.35853504097731753,1.6620297426669077,10.679398926858266,-0.04072821257222236,-0.20631496181670628,-0.01175233814292119
1778454627329707000,-0.3333402204600814,0.37790892946814275,6.321922073257882,-0.12404041358538918,0.10736706507493085,-0.029069276815052433
1778454627350116485,0.27719458988838297,-0.21868686355273653,11.011282175128045,0.14566749738685958,0.15706804260242563,0.013404946778403325
1778454627370627600,-1.5749168395735096,-0.779547840519365,9.558088227969348,-0.07992994381818874,-0.23092683134678257,0.025131377690240226
1778454627391046012,1.2853290858225632,-1.1054570617050945,9.02203860985978,0.016881288128371724,0.11793448828036526,-0.06540757725696562
1778454627411403497,-1.9915803968933952,-0.2591808374422333,6.942352623305454,0.0383570191587707,-0.11659412995637278,0.01681379297370475
1778454627431859908,0.7359690025412234,0.7941106272129208,9.27045004476685,-0.1394483983881516,-0.05489401382141698,0.0363123932108289
1778454627452254098,0.6591786323091,-1.2571180302073004,10.556982027401247,0.26190915264663817,0.11779813443255321,-0.07583864661458797
1778454627472706176,1.586011575828831,-1.2876753731362907,11.384212171716305,0.10380686610855806,-0.19908820788266726,-0.15662830144323175
1778454627493335939,0.23071159804102917,0.5307330167748456,8.927921563694193,-0.1412891753336144,0.015805456269134578,-0.002207568796077201
1778454627513733628,0.20783202983058272,-0.43500410429749115,7.075278387404754,0.055810311678713996,-0.2118372926530946,-0.031932707619105626
1778454627534216817,1.4487634256794724,0.4100213648144904,5.9009904065928485,0.0783086965677034,0.07552844161081554,-0.030841876836609168
1778454627554622692,-3.1214673982316246,0.7942536023844708,10.85321317028187,-0.13760762144268884,0.09332261875028897,-0.016115661272907016
1778454627575082344,2.19573808003056,0.6911711744866054,11.471627406882964,0.2321840138236097,0.06196123375351587,0.028335693113823564
1778454627595674385,-2.550174308245121,1.0028399494076135,7.387124468343259,0.08042218120879029,0.021395964029428914,0.01994993147338206
1778454627616019648,1.0872388003290896,-0.8472336508751965,9.446024801292676,0.07285454265522112,-0.02394169036808004,-0.026069492163187175
1778454627636480133,-1.0913764448775194,0.8070083042728424,8.580417567595987,-0.0283881893452312,-0.021350967259650955,-0.047408869345774096
1778454627656896545,-1.5123406556464278,-0.5532240007933336,8.336647803968951,-0.030501673986318083,-0.09518657584987983,0.022267946886187027
1778454627677392586,2.138138553118519,0.0023522337167866114,9.894377144800075,0.011836195759325615,-0.02987308274790452,0.0064509005399884176
1778454627698327386,-2.952295521842705,1.5013527909176385,9.056258065702144,0.333358568900156,0.029099956430810134,0.11832923266978118
1778454627718495316,0.7969038484182841,-0.7570886190984055,11.219056479291904,-0.059749574342004313,0.03687212575609738,-0.03731868460768188
1778454627738893727,0.4943723480624628,-0.008576991054605299,8.449616241497901,0.08935335824048002,0.023986687137857995,0.05962890118669065
1778454627759346509,-2.0298307864795784,0.5204223727714712,11.448898151853218,-0.14885681388718358,-0.07909682180805709,0.09249017850939638
1778454627779842420,-0.5638389694753885,-0.1236145385966734,6.953139763198859,-0.14912952158280768,0.24944777449509425,-0.09560995454733624
1778454627802117425,-0.5555680418520257,0.1566605026463767,10.674580079767734,0.0637188348518133,0.11643459595443262,0.07005997054431301
1778454627821436317,-0.6245063153833907,0.016537437587031634,12.727589679176976,-0.12226781356383244,-0.19383858474190307,0.0226770084296232
1778454627841923062,1.8447639267198672,-1.8464337630212193,8.502276378507451,-0.05129563577765678,0.12338864219284754,-0.015229361262128644
1778454627862346344,-1.1491379537016098,0.8200992172757617,8.987074983184142,0.17675617468800853,0.16006782725429086,-0.058521707942456744
1778454627882850959,0.10378354351602445,0.257995599101245,9.175096562161333,-0.104473636424359,-0.004715797826580003,-0.02538772292412689
1778454627903238407,-0.051434171030777964,-0.5194194752209442,7.94910831533523,0.07633156577442857,0.019759717855684228,-0.03602332305346734
1778454627923735911,-2.212373672429425,-0.4196979572577992,11.828286976707426,-0.01863888922666912,-0.30544420917607173,-0.06268050030072447
1778454627944150286,0.2465114275351735,-1.347581474784358,5.513508483257636,0.05110610392919803,-0.07657427562353404,-0.09554177762343022
1778454627964673845,-0.41446924144417985,-0.9182222019028858,8.996294530638888,0.077354219633019,-0.16861312289667252,0.02799480849429342
1778454627985143682,1.7764457057599639,0.6871374941777637,5.511845477376107,-0.033910520181619504,0.12359317296456562,-0.07999743897285572
1778454628005551760,0.18384899808437163,2.4603887611927338,12.371640160374229,-0.051500166549374865,0.24133472055027683,0.11117065565964819
1778454628026015709,0.04487521403223951,1.2831757538314483,11.12096820259062,0.13612272804001557,0.13818303468045573,-0.03438707687972265
1778454628046461083,0.49671751108937445,-0.5918888322881144,10.61441504117666,-0.03356963556208936,0.08889111869639713,-0.020001745935550642
1778454628066933328,0.2189820946503355,-1.8689025231434215,11.08825190197624,0.1462810897020138,-0.10609488367484438,-0.05606733868183972
1778454628087397147,0.6483280934861199,-0.3586018506145868,6.609477616054588,-0.12369952896585905,0.09420891876106735,-0.046249861639371614
1778454628107739891,-0.15323566549812817,-0.5518888664795211,9.5996193946425,-0.09404256706673664,0.02923631027862219,-0.05988524642057731
1778454628128189340,-0.9815311323365826,-0.6610717059315727,9.551247394081862,0.18016502088331,-0.005533920913452343,-0.01400217663182013
1778454628148593899,0.5059675235773483,0.08677704648996082,9.85806012802177,0.024721634377565,-0.1558640381262452,0.062424155066837815
1778454628168927940,1.4926654921483276,-1.1375330083533188,9.070913258821808,-0.102087444087648,0.16320396575396817,0.08246817069521019
1778454628189414777,-0.41958779369905597,-1.5233341518293428,9.15783613668173,0.011563488063701501,0.005851625378854412,0.01906363146260369
1778454628209772133,0.28448976008291305,-0.5612659175630155,9.817409299867025,0.04824267312514483,-0.12538895314025045,-0.13842506276032215
1778454628230138508,-0.308075705237299,-0.0912157221944469,10.432341212368822,-0.09649693632735366,0.25449286686414035,0.14416828683016597
1778454628250565215,-0.9033207465418164,-1.6419677663135654,8.040684581206666,-0.38577162446063257,0.2945127211969791,-0.19671633269997651
1778454628271220312,-2.0652960117849357,-3.5189904331627897,7.571536731930263,0.24936459864792893,-0.10404957595766354,-0.2791422337023649
1778454628291513945,-1.036219171506622,-3.1409556018228573,12.11040820991615,-0.13399424447566932,0.14179641164747522,-0.26434784121475674
1778454628311901931,-0.6925718749797755,-2.735861862211623,6.3575497733418,0.05696931938511648,-0.055712136908289314,-0.1256078010659888
1778454628332402824,-0.5727681296844211,-2.371888535375716,9.774714539976172,-0.05722702815748125,0.1584997580044522,-0.1268349856962973
1778454628352861050,0.46432366811578807,-2.211626001129235,8.85029379412455,0.16748411303678867,-0.12341182234697562,-0.025183192152408808
1778454628373296109,1.2839346823104936,-0.6308577083887106,8.858468539476542,0.18248303629611495,-0.11243533759810503,0.08505889380363928
1778454628393752484,1.2421683322014074,-0.5438829040772644,9.814164575425155,-0.023479450823997147,0.019214302464436,0.0358351547434867
1778454628414244117,0.9991758148192381,-0.9193239664630855,9.058904856948436,-0.014002858401059186,0.016623579356006918,0.003246585116405079
1778454628434707473,0.9501569912081275,-1.0175122631384383,9.446916920665597,-0.003094550576094625,0.008919586954625698,0.009859746735289844
1778454628455073755,0.9179570064605879,-0.678435127441805,9.342100577397613,0.0005188263909248845,-0.006761105543760859,-0.02095622287023504
1778454628475579518,0.05133491083879613,0.03681474151261077,9.44601447190395,0.02104008048663946,-0.015555928727638533,-0.009161615034492107
1778454628496003133,-0.059247458431998856,0.23707893341008052,9.263762317974592,0.01701764197618378,-0.012556144075773278,-0.01086603813214282
1778454628516452933,0.3019139233971795,0.13851579983950796,9.218149499404678,-0.0026173121087524273,0.000465648390278163,-0.0036392841981038
1778454628536926308,0.20752307606529805,-0.18633751816911323,9.289789092784366,-0.0013219505545378832,-0.0009660670117484366,0.001064923551412167
1778454628557323774,0.19378167121078668,-0.07742085370783647,9.293979915213285,0.0029731956515419104,-0.0024659593376810604,0.0009967466275061384
1778454628577835186,0.20113926834186838,-0.039165450943523805,9.319131029681651,-0.0012537736306318555,0.0003974714663721318,0.0016785158665664232
1778454628598225819,0.18346809557129953,-0.09667266353747223,9.32026376653418,0.0007915340865489989,0.0006020022380902185,0.0015421620187543662
1778454628618671916,0.2079231094301244,0.011161879966120836,9.309464177851948,-0.003571789043436826,-0.001102420859560492,-9.408415499031781e-05
1778454628639142364,0.20111245609391756,-0.05949233863082387,9.309613265692144,-0.0001629428481353997,-0.0006933593161243187,0.0004513312362579105
1778454628659601368,0.18890673548277967,-0.014027159831541514,9.31285741765088,-0.0011174197828198,-0.0017841900986207762,0.0009285697036001098
1778454628680099317,0.20594463860758075,-0.052313297977251316,9.314457360868163,-0.0013219505545378832,-0.0014433054790906341,-0.0009122072418626596
1778454628700460932,0.20689309618073795,-0.016381735201153547,9.310746226465863,-0.0015264813262559698,-0.0005570054683122633,-9.408415499031781e-05
1778454628721153065,0.19735514890190856,-0.053488591715615874,9.301141880649762,0.0001779417713947424,-0.00014794392487608998,0.0007240389318820244
1778454628741404625,0.19015954419090833,-0.03915127902685189,9.3069731439383,0.0006551802387369417,-0.001852367022526804,0.0012694543231302523
1778454628761816518,0.20597125287042214,-0.05710251381037068,9.314475012349412,-0.00023111977204142917,-0.0013069516312785787,-2.5907231084289217e-05
1778454628782293392,0.20104858876092616,-0.02599169745201324,9.317883390260116,0.0009960648582670838,-0.002670490109399147,-0.002752984187325429
1778454628802722896,0.20111588186932747,-0.047532938849754014,9.314365528381432,0.00010976484748871293,0.0006020022380902185,-0.0028211611112314576
1778454628823246844,0.20118604128695025,-0.022430475131063388,9.328662032282093,0.0009960648582670838,0.0012837714771505027,-0.0007758533940506024
1778454628843671311,0.2019877244442609,-0.010390432313647724,9.30585358971641,0.001473303325609283,-0.00014794392487608998,0.002769346649062879
1778454628864058334,0.20577316080170702,-0.04031979869185959,9.30721864507643,-0.0005720043915715713,0.00019294069465405211,-0.0015939764809229447
1778454628884612023,0.20689385363203575,-0.025949937016095825,9.307184235884055,0.00045064946701885676,0.0014883022488685893,0.0003831543123518819
1778454628905025749,0.20476995980027138,-0.04753652617183396,9.318018457679846,-0.001867365945786112,-0.00389767473970766,-0.0007076764701445738
1778454628925458290,0.20595471794870093,-0.04155120215446134,9.31921403642776,-0.0001629428481353997,0.0021700714879288735,0.0009967466275061384
1778454628945904312,0.2107635139898231,-0.04273964940711894,9.319292630303554,0.002018718716857512,-0.0013751285551846064,0.0008603927796940812
1778454628966340002,0.23110950962862956,-0.018769569044356282,9.324316033563015,0.0003824725431128273,0.0010110637815263918,-0.002071214948265144
1778454628986905524,0.19344138392315144,-0.031906253541041096,9.287816736900913,0.0002461186953007701,-0.0019205439464328351,0.0005195081601639387
1778454629007298898,0.20120428909637642,-0.032002086896437854,9.326299139548388,-0.00036747361985348635,0.000465648390278163,0.0009967466275061384
1778454629027810902,0.21652722318470344,-0.03430994136237814,9.306164390139102,0.0013369494777972259,0.0013519484010565339,-0.0009803841657686882
1778454629048152573,0.21665232401571402,-0.012806209419391479,9.322872328346905,0.00010976484748871293,-0.0009660670117484366,0.002360285105626708
1778454629068642095,0.1997246651987676,-0.041517943680870584,9.303533038145586,-0.0002992966959474569,-0.001102420859560492,0.0019512235621905374
1778454629089090470,0.1999453862887258,-0.040364969078209245,9.319116897300594,0.0007233571626429694,-0.0020568977942448906,-0.0007076764701445738
1778454629109544788,0.20352113633374105,-0.04513731253081543,9.315592890991649,-0.0002992966959474569,-0.0025341362615870916,0.0011331004753181951
1778454629130031403,0.2082291734528007,-0.04391410211475244,9.309667169886309,-0.0015264813262559698,0.00298819457480122,-0.00016226107889634597
1778454629150396074,0.21075267719740512,-0.043933543414966636,9.318097945325762,0.000587003314830914,-0.0008297131639363811,-0.0005713226223325175
1778454629171036874,0.21438926477022066,-0.04393372078661434,9.320551776776078,-0.0002992966959474569,-0.0014433054790906341,0.0003831543123518819
1778454629191290415,0.20863145168975286,-0.0439925309746928,9.337246420392647,-0.0007083582393836284,0.001692833020586676,0.0009285697036001098
1778454629211745882,0.22033377366079712,-0.027167214389533012,9.322980918544763,-0.0002992966959474569,0.0012155945532444784,0.004337415898901535
1778454629232155127,0.19742530831953134,-0.028386127996925248,9.315438384550426,-0.0011855967067258277,0.001420125324962565,-0.0007758533940506024
1778454629252532038,0.19998702057069292,-0.04156909293735345,9.321519505867109,0.0014051264017032553,0.0018973637923047626,-9.408415499031781e-05
1778454629273017116,0.18296051370449826,-0.03677336611915771,9.308052144537553,-0.002003719793598171,-0.0004206516205002078,0.000792215855788053
1778454629293461083,0.2010402223075108,-0.030774093384268286,9.315502846045161,-0.0015264813262559698,0.001079240705432423,0.001337631247036281
1778454629313916568,0.20464848272978006,-0.0319647548133315,9.315562894669586,-0.0009810659350077428,-0.0005570054683122633,-0.0016621534048289733
1778454629334321258,0.2024139486199424,-0.03678567860271953,9.325136238432906,-0.0024809582609403684,-0.00035247469659417663,0.0012694543231302523
1778454629354769632,0.20825427281304662,-0.029566914317987303,9.316808802531174,-0.002685489032658455,-0.0013069516312785787,0.0005876850840699673
1778454629375271136,0.20476179133196545,-0.027202818583669575,9.32513802597315,-0.0013901274784439144,-0.0006251823922182945,0.0012694543231302523
1778454629395623121,0.2154042580004815,-0.019975197593315175,9.3168847710769,-0.0026173121087524273,0.0010110637815263918,0.0007240389318820244
1778454629416118162,0.2134035541269134,-0.0511538582170209,9.332550687227597,-0.0015946582501619976,0.0021018945640228492,0.0014739850948483377
1778454629436559481,0.19169980763120817,-0.04997935968188,9.326216970592107,-0.0001629428481353997,-7.976700097006573e-05,0.0002468004645398247
1778454629456957226,0.1976808121406369,-0.05235607681554766,9.323920326893381,-0.0009810659350077428,0.0024427791835529913,0.003519292812029193
1778454629477410970,0.2058689790457641,-0.03555445251176548,9.315594678531893,-0.0011855967067258277,-0.0008297131639363811,-0.0009803841657686882
1778454629497788308,0.20937401020696814,-0.030744954347700693,9.31083627141235,-0.0011174197828198,-0.0027386670333051748,-0.00043496877452046034
1778454629518222367,0.2106878544280065,-0.025980803941633213,9.320429947967284,0.0013369494777972259,5.6586846841989724e-05,0.001337631247036281
1778454629538678445,0.19992542559159474,-0.03677305720336965,9.319103658689658,-0.0009810659350077428,-0.0012387747073725475,0.0003149773884458533
1778454629559082653,0.1964652565026583,-0.05594338296592838,9.321516824556742,0.0013369494777972259,-0.0011705977834665197,0.0007240389318820244
1778454629579544638,0.19989387065074796,-0.024806837521435532,9.321457725682738,0.0009960648582670838,-0.00014794392487608998,0.0011331004753181951
1778454629599938586,0.20235311109214207,-0.04155784468367796,9.319158400673647,-0.00023111977204142917,-0.00014794392487608998,4.2269692821739376e-05
1778454629620431276,0.19994861407902634,-0.05352167281755893,9.314369047481623,-0.0028900198043765417,0.0021018945640228492,0.002564815877344794
1778454629640833594,0.20447947526290908,-0.02355975745234723,9.30713831964069,-0.000640181315477599,0.001420125324962565,-0.00036679185061443175
1778454629661207839,0.20937572309467314,-0.02476525445716582,9.313212402756992,0.000587003314830914,0.0012837714771505027,4.2269692821739376e-05
1778454629681697047,0.1915783305607168,-0.03440758832337759,9.323761407581847,-0.0017991890218800842,0.0005338253141841942,0.0014739850948483377
1778454629702073513,0.19638370082642906,-0.04755543535710499,9.319087738768355,-0.0005038274676655435,0.0005338253141841942,4.2269692821739376e-05
1778454629722548425,0.19960812880628168,-0.03312317617118288,9.298705756660995,-0.002276427489222285,-0.0016478362508087208,0.0003831543123518819
1778454629742937855,0.19504248489125156,-0.03796216811511077,9.31303840131398,-0.0010492428589137705,0.0003974714663721318,-9.408415499031781e-05
1778454629763386247,0.2059739211945342,-0.0355749122143586,9.322789265620502,4.1587923582685205e-05,-0.001988720870338863,0.0016785158665664232
1778454629783910418,0.20251889076871252,-0.03680613830531265,9.332330825521515,-0.0013901274784439144,0.0009428868576203606,0.0009285697036001098
1778454629804327626,0.2020483639869519,-0.030734369753108615,9.302331314967414,-0.0015946582501619976,-0.0013751285551846064,0.0019512235621905374
1778454629824883815,0.19765838110450315,-0.04517566301630066,9.32509294751961,-0.0004356505437595141,-0.0020568977942448906,0.0003831543123518819
1778454629845164745,0.1951774670782729,-0.03081244386975357,9.325002902573122,-0.0032309044239066838,-0.0005570054683122633,0.003042054344686993
1778454629865593286,0.21069526544501463,-0.03674630971485532,9.316872370255789,0.0012687725538911981,0.00019294069465405211,0.0003149773884458533
1778454629886129901,0.1940543039089416,-0.04159380362110998,9.326223171002662,-0.0011174197828198,0.0009428868576203606,4.2269692821739376e-05
1778454629906578479,0.19033444777219186,-0.039185378531173765,9.318964122419317,-0.0017991890218800842,0.0008065330098083051,0.0002468004645398247
1778454629927093186,0.20944568452718657,-0.024778894258894568,9.318008794149398,-0.0011855967067258277,-0.0022614285659629772,-0.0007076764701445738
1778454629947460172,0.20356030027670538,-0.042752934465552284,9.31918135879533,0.0015414802495153125,5.6586846841989724e-05,0.0017466927904724518
1778454629967928472,0.19987960808292007,-0.037960131310352974,9.315510778015666,-0.0012537736306318555,0.0038063176616735597,0.002701169725156851
1778454629988343717,0.20962114757465847,-0.05949729909857815,9.31693766954035,-0.0009810659350077428,0.00298819457480122,-0.00023043800280237456
1778454630008793424,0.1879134158373549,-0.03559789500914534,9.318913793305638,-0.0007765351632896562,-0.0028750208811172337,0.0005876850840699673
1778454630029177780,0.20965461338831962,-0.04036771536955791,9.326459846400168,-0.0016628351740680287,-0.0008297131639363811,-0.000844030317956631
1778454630049539006,0.2109541950415301,-0.04875685875240793,9.330106575288028,-0.003435435195624767,0.0027154868791771022,0.0033829389642171357
1778454630070013640,0.20821415343367508,-0.0474991940887276,9.307282212801043,0.0010642417821731132,0.0017610099444927071,0.0005195081601639387
1778454630090477199,0.20574730399016342,-0.04509878467368239,9.303639003013375,-0.0002992966959474569,0.00026111761856007637,0.0005876850840699673
1778454630110869592,0.2045252927715838,-0.02237268334536391,9.310731200314683,-0.0021400736414102263,0.0009428868576203606,0.0017466927904724518
1778454630131300670,0.20474924165184252,-0.03437641248205214,9.321567209650718,-0.0015264813262559698,0.000465648390278163,-0.0005031456984264889
1778454630151766433,0.19384441961140134,-0.041552884215923735,9.311833996825444,-0.0007083582393836284,-0.0008978900878424054,-0.0010485610896747168
1778454630172226252,0.18793014874418548,-0.02603310314463525,9.323674881735549,4.1587923582685205e-05,0.0009428868576203606,0.0002468004645398247
1778454630192614922,0.1964262905448033,-0.0332116575107721,9.32742846926132,-0.00036747361985348635,0.0021700714879288735,0.0008603927796940812
1778454630212990463,0.2072986022079906,-0.02961686780044348,9.333577627153225,-0.0028218428804705105,-0.0012387747073725475,0.0031102312685930217
1778454630233450560,0.2095013833918721,-0.03794582784954076,9.316858237874731,-0.001867365945786112,-0.00014794392487608998,0.000792215855788053
1778454630253909379,0.19517651164186575,-0.046360345575230666,9.319064780646674,0.0003824725431128273,0.000465648390278163,-0.0005031456984264889
1778454630274417753,0.20111360951543414,-0.01882833340492729,9.325051500126852,0.00010976484748871293,0.0005338253141841942,-0.0010485610896747168
1778454630294745238,0.20730848356400142,-0.04397087549807299,9.328834190204566,-0.0010492428589137705,-0.0004206516205002078,0.0012012773992242237
1778454630315126557,0.1942466978483535,-0.041631313075864096,9.33941324733178,-0.0024127813370343407,-0.0029431978050232614,-0.0014576226331108875
1778454630335584431,0.19301783507895412,-0.042824011309685106,9.33700091925452,-0.0005720043915715713,0.0021018945640228492,0.0031784081924990503
1778454630355982620,0.19013958349377727,-0.035559367152012356,9.306959905327364,0.0003824725431128273,0.002033717640116818,0.0004513312362579105
1778454630376412495,0.19990793523346642,-0.036769647252937465,9.317904560841555,0.0012005956299851704,0.001420125324962565,-0.002957514959043515
1778454630396884647,0.20356695384241572,-0.04395023842383211,9.31918577166564,-0.0031627275000006526,-0.0015114824029966618,0.0016785158665664232
1778454630417395466,0.20017351839569217,-0.0499775002487699,9.331143178744108,0.0002461186953007701,0.0013519484010565339,0.0003831543123518819
1778454630437753155,0.20580738406666596,-0.03075841677778174,9.31317883135444,-0.00036747361985348635,0.0010110637815263918,-0.0014576226331108875
1778454630458183677,0.21080857404720008,-0.031984373485193396,9.326447501559352,-0.002276427489222285,-0.0008297131639363811,0.0014739850948483377
1778454630478976051,0.20134668230040595,-0.03561786842430276,9.334706063096036,-9.476592422937198e-05,0.000465648390278163,0.000792215855788053
1778454630499145296,0.2108484954414622,-0.039168197234872526,9.326473978781225,-0.0012537736306318555,0.0008065330098083051,0.0017466927904724518
1778454630519587874,0.18778185942574335,-0.0307882194734328,9.31170155473578,0.0005188263909248845,0.0017610099444927071,-0.0024802764917013147
1778454630540004415,0.19869237959548777,-0.04035695340331824,9.315501058504918,-0.0002992966959474569,0.0018973637923047626,-0.00023043800280237456
1778454630560505882,0.20700867713681667,-0.040324404416318405,9.309635386024002,-0.0015264813262559698,0.0005338253141841942,-0.0017303303287350019
1778454630580953497,0.20466844342691112,-0.035556666688171035,9.315576133280523,-0.0015946582501619976,0.00012476377074802092,-0.00029861492670840315
1778454630601413371,0.20365611852076246,-0.037987588285458174,9.327557392250792,0.0009960648582670838,0.00012476377074802092,0.0012012773992242237
1778454630621944005,0.20601041681338653,-0.05471813574510753,9.318063480153091,0.0003824725431128273,-0.0013069516312785787,0.0004513312362579105
1778454630642348379,0.20593818302697972,-0.025999890498552003,9.323953060506108,0.0003824725431128273,-0.0004206516205002078,0.0015421620187543662
1778454630662769642,0.20595471794870093,-0.04155120215446134,9.31921403642776,0.00045064946701885676,0.0008065330098083051,0.0009285697036001098
1778454630683289368,0.20227820898162321,-0.03436720103313451,9.31673372775557,-0.0007083582393836284,-0.001102420859560492,-0.002207568796077201
1778454630703720668,0.19290946715477417,-0.05476295138816173,9.325054069476625,0.0020868956407635395,-0.0011705977834665197,0.002019400486096566
1778454630724274135,0.19621469335955813,-0.039150437996120724,9.31066316373946,0.0008597110104550266,-1.1590077064034532e-05,0.0024284620295327367
1778454630744777862,0.20124839371734612,-0.036794712679989405,9.32751588887774,-0.0036399659673428536,0.0034654330421434176,0.0018148697143784802
1778454630765037125,0.2000244716259523,-0.04516441476262517,9.322731842326148,0.000587003314830914,0.001692833020586676,0.0009967466275061384
1778454630785560203,0.20486996127103604,-0.040379982025612327,9.327584763242788,-0.002685489032658455,0.0012155945532444784,0.0004513312362579105
1778454630805974521,0.21428850584815826,-0.04152206311789369,9.314547461794948,-0.002208250565316254,0.00012476377074802092,0.0016103389426603948
1778454630826420507,0.20120257620867146,-0.03798178678697273,9.323923008203748,0.00045064946701885676,0.0009428868576203606,0.0018148697143784802
1778454630846915029,0.1879392726488985,-0.030818909027322483,9.322493435368694,-2.658900032334252e-05,0.00298819457480122,0.002701169725156851
1778454630867263607,0.19650119265532215,-0.040402301161315546,9.329853142179395,-0.0024809582609403684,-0.00035247469659417663,0.0012012773992242237
1778454630887757426,0.20719688784952098,-0.042753111837199986,9.321635190245644,0.002291426412481626,-0.00014794392487608998,-0.0009803841657686882
1778454630908215578,0.19989291521434074,-0.040354739226912684,9.31551960375629,-0.0009128890111017134,0.0003974714663721318,-0.0020030380243591154
1778454630928690878,0.19877070748141648,-0.035588197272791944,9.322677994112277,-0.0009128890111017134,0.001692833020586676,0.004132885127183449
1778454630949123586,0.19511587209917478,-0.026016408135769775,9.32258705539567,0.0005188263909248845,-0.001102420859560492,4.2269692821739376e-05
1778454630969617997,0.1925532044116061,-0.028381344900818728,9.310567812152538,-0.0009810659350077428,-0.0021250747181509183,0.0002468004645398247
1778454630989997001,0.1963937801675493,-0.03679333953431507,9.323844414327953,-0.000640181315477599,0.0018973637923047626,0.0003149773884458533
1778454631010491172,0.20374357031140425,-0.03800463803761911,9.333552881491299,0.0010642417821731132,-0.0019205439464328351,-0.0022757457199832297
1778454631030925546,0.1966002386896797,-0.048793658720571065,9.333481325815885,-0.0026173121087524273,0.0003974714663721318,0.0004513312362579105
1778454631051421420,0.20235824975525687,-0.02361874501207334,9.326286794707572,-0.0008447120871956856,-0.0019205439464328351,0.0007240389318820244
1778454631071976869,0.19753423570989978,-0.05113149325381022,9.314323131238258,-0.0029581967282825694,-0.0027386670333051748,-0.0013212687852988303
1778454631092324187,0.20221071788811254,-0.03794206315581311,9.310751477126,-0.0012537736306318555,-0.0006933593161243187,-0.0013212687852988303
1778454631112727376,0.2046558937467882,-0.0427302605865536,9.312005316958093,-0.00023111977204142917,-0.0010342439356544608,0.0024966389534387652
1778454631133172862,0.19299616149411816,-0.04521179932538044,9.33461154929894,-0.0010492428589137705,0.0012155945532444784,-0.0006394995462385453
1778454631153584643,0.19135589658305366,-0.0415402628165738,9.305801417082193,-0.0011174197828198,-0.0008297131639363811,-0.00016226107889634597
1778454631174105610,0.2036327320482215,-0.04635507619168838,9.32279189095057,-0.0002992966959474569,0.0012155945532444784,-0.0032302226546676283
1778454631194534022,0.2022831496596287,-0.04154420488194921,9.314362009281242,0.0006551802387369417,-0.0007615362400303499,0.0004513312362579105
1778454631214997303,0.2083924827903685,-0.03557389381197973,9.324025453971345,0.0012687725538911981,-0.0008978900878424054,-0.0010485610896747168
1778454631235427252,0.20240633961782492,-0.0511362763499168,9.319193703636145,-0.0011174197828198,0.0010110637815263918,-0.0021393918721711726
1778454631255802848,0.22260994205260184,-0.023550414459289237,9.315810183347958,-0.0020718967175041986,-0.001852367022526804,-0.0005031456984264889
1778454631276291556,0.20595396049740314,-0.03198300033951906,9.322776027009565,-0.0024809582609403684,0.0015564791727746205,0.0016103389426603948
1778454631297127041,0.19750686399576053,-0.03677407560574858,9.317867470338813,-0.0033672582717187392,-0.00014794392487608998,0.0039965312793713926
1778454631317609897,0.16331261748823037,-0.04174344086932341,9.35811663636577,-0.0028900198043765417,-0.0010342439356544608,-0.0005713226223325175
1778454631337930197,0.7386427521916967,-1.3740181731149503,9.623554977268757,-0.032546981703498935,0.038235664234217946,0.07326428596789634
1778454631358615479,0.04948860190785867,-0.3634875660604398,9.168102984850869,-0.006912458314832223,-0.00021612084878212118,0.02356330844040157
1778454631378879520,0.20119433230243502,-0.5831083495035791,9.44696556584858,-0.05320458964702557,0.05207557978714173,-0.006843599621687138
1778454631399437690,-0.08096181313058638,-1.0156321376716417,8.947852562720938,-0.027910950877889,0.03155432569142715,-0.10058686999247632
1778454631419807287,-0.2912914440275341,-0.9946817783967774,9.018853233396396,0.04149315765844801,-0.028100482726347777,-0.04461361546562693
1778454631440302680,0.3336812065194057,-1.473722350971716,9.471400103575766,0.03474364219175119,0.010419479280558322,-0.04611350779155955
1778454631460694183,-0.06775000418667496,-1.1837587008357018,9.132080697335153,-0.013661973781529044,0.014237387019295923,-0.11490402401274231
1778454631481115798,0.35668694443105264,-0.6676244905827957,9.377743891432823,0.0732636041986573,-0.13956975331270438,-0.011615984295109133
1778454631501624580,0.4926392293197728,-0.7867955747616511,9.272380530791144,-0.052386466560153236,-0.10118614515361032,0.21589041077930796
1778454631522054436,-0.011838548658863357,-0.3999630604157823,8.48755827101832,0.04667460387530618,-0.06580232164638153,0.16973463329492666
1778454631543189625,0.273169665103573,-0.21388552180007325,9.336457750603417,0.02308538820382032,0.046076010483411235,-0.00016226107889634597
1778454631563202333,0.5231208416721806,-0.18021980184248182,9.451689157141832,-0.06159035128746708,0.04757590280934385,-0.09806432380795327
1778454631584246855,0.7946055693589665,-0.2900202041815633,9.5078290302373,-0.1228814058789867,0.12318411142112945,-0.06827100806101882
1778454631604625155,0.17440358038988638,-0.33170012659258363,9.021265913703436,0.03222109600722814,-0.00989724404343817,0.07749125525007011
1778454631625557252,0.20590389436926107,-0.7744132391886189,10.192191291520773,0.014972334259002927,-0.029054959661032175,0.0504250164593768
1778454631645763015,-0.28783562672629043,-0.14022533505739052,9.166881499111135,0.04790178850561469,-0.10009531437111388,0.08546795534707545
1778454631666134537,0.9684158190810545,-0.26091356369585883,10.326803539101395,0.10094343530450486,-0.07616521408009787,-0.00861619964324388
1778454631686538727,0.9580897515991108,0.914589249171099,9.15596513062797,-0.07065788216696886,0.07498302621956732,-0.047136161650149985
1778454631706904860,-0.051341135555197676,-0.8631494578367565,8.40230046821923,-0.05272735117968337,0.08268701862094854,-0.05354479249731666
1778454631727901123,-0.006577246620226795,-0.08423936201798715,10.285924767753214,0.0350163498873753,-0.09034601425255179,-0.017956438218369786
1778454631747963627,0.7328824777219551,-0.7354088895193217,9.881310011303233,0.04326575768000475,-0.08448279879663334,0.0686282551422864
1778454631768416872,0.7657949523712493,-0.42881056575674315,9.455135531844153,0.008836411107460362,0.007896933096035272,-0.0018666841765470582
1778454631788825598,0.18273918962462302,0.5837756667199154,10.021507595783635,-0.009775889118885418,0.011646663910866835,0.02806298541819945
1778454631809743435,0.5791431772082141,-1.647744487199664,9.776722579918648,-0.007457873706080448,0.013078379312893434,-0.02225158442444958
1778454631830028458,0.9024505333469565,-0.28784719236819206,10.072931036097874,0.05567395783090194,0.09311808797857088,-0.023274238283040007
1778454631850475073,-0.3197740393918072,-1.1732113008484222,9.879805096471266,-0.051636520397186914,0.02780459487659559,0.03283537009162145
1778454631871271243,-0.3678276836635426,-0.2440402580814311,8.992190789514478,0.0641960733191555,-0.03744072130147368,-0.0018666841765470582
1778454631891350006,0.31065248237420384,-0.2756178770534614,8.34344137533299,-0.011275781444818046,-0.05707567538640989,0.037266870145513296
1778454631911956381,0.7672253759607811,-0.6152232408014773,8.494378834192448,-0.05272735117968337,-0.06280253699451628,0.020086285321194115
1778454631932292107,-0.5453375927654804,-0.6579684009177492,9.174356322323405,-0.06240847437433941,0.08282337246876059,-0.014343061251350273
1778454631952710481,-0.2376830886488582,0.19096325037245937,8.944683526569216,0.026835119018651883,0.026304702550662966,-0.034727961499252794
1778454631973205003,-1.0091708734313867,0.5735903135657738,8.614896251047437,-0.00425355828249711,-0.02523705192229458,0.022813362277435256
1778454631993648563,0.4020025833041976,0.09152545129706924,10.220876191618373,0.05601484245043208,0.006056156150572499,-0.109381693176354
1778454632014087622,-0.04772154700568679,0.38449572345697197,7.968689274123039,-0.06990793600400255,-0.016919467205759105,-0.13515257041283277
1778454632034527108,1.9315516555965806,-2.488539476625598,9.932519230696023,0.07585432730708638,0.05991592603633502,0.018859100690885606
1778454632054900297,0.7915330070496333,-1.063444536656881,9.91097001508953,0.008700057259648303,-0.05734838308203401,-0.10624555467667669
1778454632075424949,0.20973987636581262,-0.3135317833563671,9.805771792593982,0.05785561939589485,0.025418402539884595,0.010677869822162185
1778454632095752064,0.18212073796449077,0.057343773719529145,7.803187194421307,0.0802176504370722,0.012464786997739181,0.1492815561231181
1778454632116138234,0.11742618246739664,-1.217421069638118,9.718886648810532,-0.04236445874596704,0.051393810548081446,-0.12308525488146574
1778454632136586571,0.6325632402757979,0.5361010701829565,9.407644537043678,0.07128647340538247,0.012805671617269324,-0.02647855370662335
1778454632157100872,-0.5522829248938235,0.3133618049632552,9.47645029663895,-0.10386004410920474,-0.11495788378262808,-0.10072322384028838
1778454632177545116,0.6022262090936534,-1.3033349518729747,9.10210532066601,-0.03902378947457164,-0.05987092926655706,0.0870360245969141
1778454632198018213,-0.6184296666339064,-0.6506599902161563,10.750841341612338,-0.011343958368724073,-0.0037613208918956045,0.06583300126213924
1778454632218403217,0.6608591874869314,-0.8121171848287827,9.028115428175074,0.029425842127080968,0.02896360258299808,0.012450469843718927
1778454632239245961,-0.8171712837486593,0.004662148429839419,8.396931817788444,0.012858849617916043,0.05105292592855131,-0.08838320061329723
1778454632259403243,1.0034294391163496,-0.8570011743941458,9.456752915140251,-0.13501689833425978,-0.07009746785246133,-0.04059117695517125
1778454632279732599,0.21104968388843012,-1.4959729510299737,7.966270684088106,-0.02463845853039963,0.03721301037562753,-0.04631803856327764
1778454632301283399,0.2542305151351063,0.24104021542783266,11.009272363654858,0.14116782040906167,0.15004581944010467,-0.007389015012935367
1778454632320834903,-1.1229597493956338,0.16205096954856785,5.922080092732811,0.020017426628049034,-0.06014363696218117,-0.13801600121688598
1778454632341184277,0.28830260039603484,-1.4105404578016878,14.124272272577343,-0.14742509848515695,-0.14256953796456961,-0.023956007522100295
1778454632361594485,0.15989539346643064,-2.4092311647764033,13.25434422620006,0.024108042062410746,0.1593860580152306,-0.03227359223863577
1778454632382016785,1.8632607614324523,-0.4804637766465902,7.733999692773617,0.0519924039399764,0.05759791062353004,-0.018501853609618014
1778454632402443807,0.42052992308839254,0.40283315059143526,8.562080347194653,0.10346598148902791,0.06196123375351587,-0.01959268439211447
1778454632422925700,0.4236180846741878,-1.1082522532458745,10.2626924639788,0.06249165022150479,-0.07827869872118476,-0.029614692206300655
1778454632443317815,-0.7431836197357335,-0.5914338968317101,8.389431716401871,-0.11599553656447782,-0.10084526053408019,-0.05374932326903475
1778454632463789411,0.383901658594614,-0.5156178306627424,8.996394021115552,0.05451495012449945,0.013623794704141663,0.04878877028563212
1778454632484290712,0.2134806990823412,0.38228738348652597,10.160571751309291,-0.01652540458558224,0.06359747992726056,-0.04011393848782905
1778454632504783660,0.30124897735882805,-0.21343845276438259,9.616214041368186,-0.03295604324693511,0.09059554179404783,0.03365349317849379
1778454632525156942,-1.6279197951484194,0.19491359590899843,10.407317731074395,0.05028798084232569,0.023577625594421822,0.04531174716642466
1778454632545614964,1.5528054226296255,-0.06413910006638313,9.732122335944148,0.005154857216534822,0.09543610339137584,0.001337631247036281
1778454632566210172,-1.5178005457756176,0.9129780459385191,9.339489049835608,-0.04584148186517449,-0.054348598430168746,-0.006639068849969053
1778454632586699787,-0.9531642145581554,1.816721852116234,10.621699985616557,-0.012571142999032586,-0.03928149824693645,-0.022728822891791782
1778454632607071420,2.0130232351207127,1.2273706928771395,10.584545460580438,-0.0664309128847951,0.005647094607136333,-0.021501638261483266
1778454632627570776,0.3474610760812511,1.8912659566015135,10.534837102653846,-0.07549844376429689,0.07355131081754071,0.05335662418733602
1778454632647979706,0.2388049012915918,-0.9440742892395346,9.255836947182367,-0.041409981811282644,0.01151031006305478,0.03801681630847961
1778454632668523450,0.8054909700781233,0.032847267034222805,7.987936045479279,-0.08217978230708768,0.07130147232864179,0.043811854840492034
1778454632688829084,-0.5617170379793139,0.3424729789269579,8.922347049547461,-0.08545227465457705,0.09127731103310813,0.02581314692930051
1778454632709254754,1.2374179764606033,-1.2372909361740096,11.120898306677995,-0.030842558605848225,-0.0016478362508087208,-0.0770658312448965
1778454632730028684,0.8024071014257196,0.6685866705807677,9.66394124217707,0.004268557205756453,0.1396147500824823,0.013541300626215383
1778454632750763688,-0.11350923770624866,-0.0822788868835983,9.949795708896058,0.05649208091777428,0.039940087331868664,0.04258467021018352
1778454632771104192,0.21858422798109936,-0.8082617977523061,9.89640172979792,-0.030774381681942194,0.00612433307447853,0.0236314853643076
1778454632791266066,-0.30590776837141836,0.22116962387728428,8.804457865606244,0.0036549648906021963,0.023509448670515798,0.02540408538586434
1778454632811729385,0.7871866052057412,0.16019430720664335,9.910094445677501,-0.1357668444972261,-0.041531336735835395,-0.09847338535138944
1778454632832251389,0.28636939172713005,-0.18260073223119,7.206254378551038,-0.040319151028786186,-0.055575783060477266,-0.019660861316020496
1778454632852668670,1.0445876725088132,-1.785831540226076,8.553229412536432,-0.09683782094688381,-0.08768711422021669,-0.030841876836609168
1778454632873144489,0.906979282087396,0.20468955104839542,9.087000653373439,-0.06868075137369405,0.13579684234374473,0.061537855056059444
1778454632894005938,0.047193849132378646,0.9135862326953432,9.740100468540188,0.0007233571626429694,-0.12368453004259974,0.011495992909034528
1778454632914188978,-0.5051083213612084,-0.9178868159229243,6.317938067240966,-0.11456382116245122,-0.0324638058563336,-0.060021600268389375
1778454632934731167,0.9363109908182133,-0.6675588669536259,13.489047105647124,0.01210890345494973,-0.013374267162645621,0.017904623756201204
1778454632955151764,-1.148249632320651,-1.2195476913842727,13.796885007405555,0.04824267312514483,0.12966091919220216,0.032971723939433505
1778454632976044009,0.8059591676000989,-0.9761865366868772,7.886079848765418,-0.008139642945140736,0.12284322680159931,0.004951008214055791
1778454632996475346,-0.47377464447646145,-0.8725381058926995,9.30930316657669,0.09446662753343216,-0.09027783732864578,0.05356115495905411
1778454633017046553,1.4707960803355566,0.517987420865643,9.595690923745423,0.11021549695572473,0.054870833667288905,0.054106570350302335
1778454633037649539,0.47963008602876633,0.5741681256228783,8.97596818777642,-0.09622422863172955,-0.10923102217452169,-0.047954284737022325
1778454633057963969,-0.18176504486323591,-1.0974202898041823,8.176949751308772,-0.10870060570653277,-0.07268819096089041,-0.021637992109295325
1778454633079113639,-1.0880447257767707,-0.7824254295766947,7.96160792913409,0.05758291170027074,0.031963387234863326,-0.08027014666847983
1778454633098895106,-0.03788445116826469,-0.6302182366315734,7.766297829782539,0.03201656523551005,-0.07343813712385673,0.08021833220631125
1778454633119426814,0.0015892556497932309,0.5652540661293992,10.515084280616888,0.11866943552007227,-0.03539541358429282,-0.005207353447942455
1778454633139885447,-0.40700631421811617,0.39095388773443923,11.320995181005244,-0.043932527995805694,0.08070988782767372,-0.12424426258786822
1778454633160254914,-0.4998338682168878,0.349412446977817,9.465142923108873,0.060923580971666134,-0.10943555294623977,0.042311962514559404
1778454633180782566,1.3671570437933376,1.1238350758679052,11.608315640374743,0.039175142245643044,-0.06150717544030174,-0.012365930458075448
1778454633202128774,0.8066251544730988,1.1155141013183352,9.133720046424573,-0.04372799722408761,0.09229996489169856,-0.05006776937810921
1778454633222428222,-0.7172724432913841,2.765343005262923,7.316796933655996,-0.03356963556208936,0.001079240705432423,0.05969707811059667
1778454633242959152,-0.09027974695709574,1.3806193383612422,10.037197346962628,0.25427333716916295,-0.06232529852717408,-0.015638422805564815
1778454633263210081,-0.22721818616697745,-1.2651117448596343,11.089972085345751,-0.07052152831915681,0.043962525842324345,-0.04236377697672799
1778454633283661993,0.7284965580939728,-1.2495601745465585,9.221347036758454,0.08158118891519277,-0.06607502934200565,0.06746924743588392
1778454633304214256,0.5018906421811172,0.8778960830489375,9.959446188278868,0.10162520454356515,-0.04487200600723079,-0.10951804702416605
1778454633324553741,0.21830360930550788,-0.4469837572389874,10.837365673317159,-0.07570297453601497,0.06318841838382439,-0.02047898440289284
1778454633345031190,-0.4764856148646355,-2.498342501706641,8.426791710009379,-0.13283523676926684,-0.10145885284923445,0.06494670125136087
1778454633365371823,-0.6997213703118823,-1.2638375620373452,6.9995005512027415,-9.476592422937198e-05,0.013760148551953719,-0.012911345849323673
1778454633385859012,2.0125415967288593,-0.45648364808198055,10.739252636890296,0.07803598887207928,0.0802326493603315,-0.03575061535784323
1778454633406460257,0.4879253762051926,-1.558187436042873,10.634541054375584,-0.07843005149225611,-0.06396154470091878,0.04128930865596898
1778454633426871909,-1.5912414248874835,-0.11906328112015155,8.028167678567792,0.033175572941912534,0.029440841050340276,-0.023137884435227952
1778454633447296190,1.9128090256398147,-0.7520639173259782,10.620092673031591,0.09467115830515024,0.0826188416970425,0.05131131647015517
1778454633467728231,-1.087543563222741,0.9666743582051085,6.350105625519546,0.031471149844261824,0.01750987936678529,0.07183257056586975
1778454633488101550,1.4878347819453064,-0.4065691745491501,8.438829267307932,-0.15710622167981303,0.19067926608809765,-0.04379549237875459
1778454633508581998,-1.2086762164235674,-0.01846354781223053,9.938635221019439,-0.026206527780238284,-0.052712352256424067,-0.03465978457534677
1778454633529015539,0.04790541863458661,1.2495107621804389,9.50393441288171,0.01879024199774052,-0.15177342269188349,-0.030773699912703144
1778454633549512784,-0.442971654099956,-0.8312929319134549,8.30861997111395,-0.06309024361339971,0.044507941233572566,0.047016170264075376
1778454633569938343,-0.3820331645357017,-1.7134672035539573,9.93353561747316,-0.2597124921583859,-0.04364482137692227,-0.026955792173965546
1778454633590444254,1.9142044410313217,-1.1073429940201955,9.675527916867862,-0.047954966506261375,0.003942671509485615,-0.0976552622645171
1778454633610954518,-0.374640687366511,0.19099521497620392,9.67744061579629,-0.08361149770911429,0.02923631027862219,0.02526773153805228
1778454633631334466,0.3436293053469487,-0.4881136792923354,7.313734807425266,0.07033199647069807,-0.013306090238739594,0.018450039147449433
1778454633651773173,0.16253950299030404,-0.614494598215277,8.676841766954572,0.011358957291983416,-0.01801029798825556,0.020086285321194115
1778454633672177622,0.07307862115705008,0.24991000545193603,8.217996561689883,-0.06424925131980219,-0.0475309060395659,-0.030296461445360946
1778454633692603181,0.20824811425253972,-0.6316443064898051,8.841847581378202,0.04019779610423347,-0.08632357574209612,0.12385156350616949
1778454633713062018,1.2103848582019423,0.6818412315125224,10.319956344859417,0.030380319061765367,-0.030895736606494945,0.03740322399332535
1778454633733444004,-1.5987193826467576,-0.5008000765444535,7.535514393147098,-0.12110880585742996,0.007283340780881012,-0.05361296942122269
1778454633753953341,-1.6097252104823083,-1.0975296188657002,8.943702727485066,0.0018141879451394269,-0.08618722189428406,0.03815317015629167
1778454633774384289,0.5250778723159122,0.18627788348348723,8.159276034807856,-0.017070819976830465,0.016487225508194862,0.08505889380363928
1778454633794701737,0.8617045360020213,0.030142673329900282,8.549860061315961,-0.15751528322324915,0.03441775649548035,0.07837755526084848
1778454633815213723,-0.3162536267303985,-1.2246171195661633,9.854869430838669,0.24616028322434558,-0.18572553079708568,-0.06779376959367661
1778454633835685819,3.243259374337576,1.3676999016182185,10.057591571893045,0.09753458910920344,0.11670730365005674,-0.006639068849969053
1778454633857052916,-1.1285555800223834,0.7413736168353056,8.06338988451742,-0.24164560732328833,0.2579698899833478,-0.10106410845981853
1778454633876707364,0.2940498992435896,-2.565113317234654,13.423613932626159,0.1077611276951077,-0.11802584535839936,0.08049103990193536
1778454633897133498,1.0424284727475421,0.0350747770962494,6.951018028985226,0.20764032121743947,-0.05216693686517584,0.06726471666416584
1778454633917611798,-0.2240605476679285,0.760132380076773,7.129037649523793,-0.11395022884729696,0.06959704923099105,-0.07031631577819968
1778454633938052098,-0.14013016489246446,-1.8170883076728723,12.821996581358087,0.1869827132739128,-0.12688884546618306,0.006859962083424589
1778454633958493694,1.8463599478731008,-0.1448419391401437,8.842633281281708,-0.042568989517685125,0.0591659798733687,0.04115295480815692
1778454633979127513,-1.3388925920433015,0.8782502112309871,5.706372199129854,-0.09547428246876324,0.19374722766386895,-0.026137669087093206
1778454633999361035,1.3581496927231602,-0.8593387894364372,15.9250563664893,0.15241701285355636,-0.03164568276946126,0.059833431958408734
1778454634019779132,1.6049694899271845,1.0601848502007654,12.665978576745525,0.0665822656558665,-0.0080564670979754,-0.02279699981569781
1778454634040262876,-0.9134661174114291,-0.21372878263761477,5.1654226619563985,-0.08442962079598662,0.18427063524093099,0.037744108612855494
1778454634060680306,0.5509805176647683,0.2141702861697165,8.052881371091157,0.3180187610212996,0.026713764094099132,0.05628823191529525
1778454634081321606,0.7320968059039525,0.4798725189176211,9.874525478496992,0.05969639634135762,0.05780244139524813,-0.04181836158547976
1778454634102003221,-0.10071699852539363,1.2771839781266792,9.776066664285421,-0.06813533598244581,-0.13159305321569903,0.09003580924877935
1778454634122293373,-1.7318669525606423,-0.08020704988334598,10.66564579569111,0.1505762359080936,0.010351302356652298,0.032085423928655134
1778454634142706914,1.2551953990991722,0.4517264918818055,10.013381691922385,0.09133048903375485,0.0720514184916081,-0.03984123079220493
1778454634163167474,1.8420748262524225,-0.5465003793904566,10.703375436722244,-0.046250543408610664,-0.05803015232109429,0.0686282551422864
1778454634183576107,-0.5164245875087405,-0.2137583734412802,8.772799781834445,0.10796565846682579,0.06339294915554247,0.06228780121902576
1778454634204039352,1.4912537982055958,0.05610605594694407,9.095366156480459,0.052401465483412575,0.09639058032606027,-0.13869777045594625
1778454634224440374,-0.2605781698624698,0.8722329765197936,10.596242353211183,-0.06247665129824545,-0.27196933953821173,0.04088024711253281
1778454634244892100,-0.9003815350513803,0.4794554085499532,10.196954892966065,-0.00466261982593328,0.08152801091454603,0.10864810947512514
1778454634265398511,0.12795330352821435,-0.18692028652127907,8.60643561837569,-0.09547428246876324,0.034213225723762265,-0.06308956184416065
1778454634285754182,-0.0545391882909691,-0.03078478092207615,9.568099598372548,-0.09411074399064268,0.008305994639471438,-0.008479845795431823
1778454634306780501,0.3272143985900665,0.019195140964107016,9.509083322079473,0.011290780368077388,0.021123256333804796,0.1779840410875561
1778454634326685004,-0.40002021682933714,-0.03479819389638089,10.321625009434111,0.005563918759970993,0.18624776603420581,-0.15540111681292323
1778454634347137768,2.1180679016416546,-1.1257781172161225,10.809227614155533,0.05117428085310406,-0.09873177589299331,-0.1746951862783293
1778454634367557938,1.9174364339418426,-0.08730679081544446,10.117865228488085,0.11812402012882404,0.1996104431197874,0.011427815985128499
1778454634387941534,-2.3367319423958155,0.7917366292052246,11.41200939239358,-0.027706420106170915,0.04273534121201584,-0.06036248488791951
1778454634408674816,2.167672180949082,-0.024018011290309282,10.758075486358655,-0.054636305049052175,0.0663245568835017,-0.04209106928110387
1778454634429056690,0.9020769861699164,-0.12492510208247215,8.790805248747672,0.16537062839570177,0.22054075875893814,-0.0727706850388167
1778454634449375046,-1.8311136265931938,1.875918490102675,10.277045938278505,-0.06363565900464793,-0.20501960026249175,-0.037659569227212024
1778454634469765217,3.042657414940122,0.3060361646784929,10.222550906441102,-0.05613619737498479,-0.06866575245043474,-0.006639068849969053
1778454634490272887,0.8010764262795006,0.14589629760008743,7.8100362088995245,0.2342974984646966,0.22067711260675021,-0.059953423344483336
1778454634510718687,-1.5895567839596263,1.1012586427619455,8.769463908995478,-0.12281322895508066,-0.047258198343941786,0.0217225314949388
1778454634531144043,3.7353692318024336,0.7177797994040955,10.306100513798501,0.044970180777655466,0.03803113346249986,0.03358531625458776
1778454634551613250,1.6711977075579918,-0.8653762332565054,9.893881072661785,0.011290780368077388,0.0976859418802748,0.07503688598945309
1778454634572071810,0.6450311603179845,0.11242500468440497,9.773802207092254,-0.03377416633380745,0.1092078420203936,-0.01993356901164461
1778454634592446406,-0.4378451903798519,0.6670421885022524,9.803023410087633,-0.0013901274784439144,-0.07187006787401808,-0.003298399578573657
1778454634612956021,0.10802362470075386,1.0597480602029759,11.416458141319367,-0.021365966182910263,0.11602553441099647,0.00822350056154516
1778454634633436599,1.2580823025543846,-0.12517783688942627,7.028055377085219,-0.07283954373196178,-0.13370653785678593,-0.07754306971223869
1778454634653994955,1.006583162611189,-0.3761710647524962,7.960148116954824,0.029494019050986996,0.03666759498437929,-0.016729253588061273
1778454634674454551,-0.7642669077861662,0.7604423956236177,10.418628940646895,-0.04645507418032875,0.020305133246932457,-0.007661722708559481
1778454634694902389,0.5511198306961733,-0.08404724465004987,10.585854905723732,0.02247179588866606,-0.006692928619854828,0.005291892833585934
1778454634715274022,0.005276581403807268,-0.42608255790393545,8.00479423927797,0.045447419244997664,0.052348287482765855,-0.03063734606489109
1778454634735721007,0.5567002322506093,-0.4292444036628926,6.966761653754058,-0.03956920486581987,-0.04357664445301625,0.08219546299958608
1778454634756254141,0.370562691503451,-0.5474065926013691,9.634072038287368,0.09685281987014316,-0.04105409826849319,0.14410010990625996
1778454634776515959,0.1728224981202511,-0.10604077161014863,9.657000063675099,0.0134724419330703,0.020509664018650543,-0.10965440087197811
1778454634796993945,-0.07960778342602853,-1.637052249195875,10.206468879339207,-0.04931850498438195,-0.0011705977834665197,0.09460366315048327
1778454634817420282,0.08031540976398446,-0.5578457254027653,8.4919484046999,0.10264785840215558,-0.03600900589944708,0.043266439449243806
1778454634837833656,-0.39285441330149523,0.07084102184495394,7.311130316164652,-0.019388835389635435,0.12761561147502132,0.030312823907098392
1778454634858742993,0.3086401292933848,-0.6361686729707678,8.398654871456053,-0.06677179750432524,-0.026123351933072952,0.005155538985773877
1778454634878677868,-1.2481615459837434,-0.21256643043541712,9.544313514565157,0.3078603993593014,-0.09620922970847023,-0.1256078010659888
1778454634899202760,0.38154247192772184,2.2206114301232325,10.526985333770499,0.01988107278023698,0.09925401113011345,-0.004730114980600254
1778454634919642560,-1.6645614434706586,0.5006011049088988,8.584650652600114,-0.18874031437221023,-0.028236836574159836,0.009314331344041615
1778454634940042416,1.6838838176900022,0.867069091865623,11.171771841780005,0.15548497442932768,-0.08755076037240463,0.10551197097544783
1778454634960925661,-1.1419455050148963e-05,0.7267029170919026,8.077286907445819,0.028266834420678483,0.09379985721763118,0.050970431850625025
1778454634981522757,-0.8561360868022743,-0.7155928522042146,6.521577698802724,-0.16351485252697967,0.03223609493048744,-0.03684144614033968
1778454635001664946,0.8033470410370195,1.30518085084262,10.627909272989273,-0.10488269796779517,-0.14454666875784444,-0.0031620457307615997
1778454635022226469,1.0329279152584003,0.018025208245331048,12.882670561282271,-0.04986392037563017,0.034826818038916525,0.03685780860207713
1778454635042679213,-0.2551610600453377,-0.11777233708602705,8.040419271276834,0.032357449855040195,-0.0036249670440835456,0.03903947016707004
1778454635063090106,0.5391918058447074,0.4284566779145638,8.889899677611622,0.1354409588009553,-0.04255399059442582,0.011632346756846584
1778454635083555999,-0.3577042184182948,2.982171375139263,8.76374798292264,-0.06424925131980219,-0.06996111400464927,-0.004252876513258057
1778454635103975503,-0.048368277019340516,3.441378836409952,9.161285671847672,-0.05327276657093161,-0.05932551387530883,-0.0337734845645684
1778454635124492821,-0.183192044490241,2.9779185372419827,10.35968572472235,-0.04495518185439612,0.0068742792374448455,-0.060567015659637596
1778454635144918158,0.7114050266392232,1.5777216973813641,7.3863084269007375,-0.04829585112579152,0.00026111761856007637,0.04272102405799558
1778454635165427570,0.5659271346420207,2.049209180078944,7.794755391704415,-0.07133965140602916,0.027191002561441337,0.0621514473712137
1778454635185837333,1.1263064059054575,2.073329626566097,9.7705845979088,-0.028251835497419144,0.013555617780235632,-0.22541881766441452
1778454635206330855,0.7799074714270693,0.27715357081156783,9.619447627513889,-0.02007060462869572,-0.00035247469659417663,-0.09267834681937702
1778454635226783655,0.5530043810645047,0.29370117781289123,9.127963655021668,0.004950326444816737,-0.0015114824029966618,-0.04045482310735919
1778454635247195363,0.15022268859240115,0.10220295232334503,9.255496867577335,-0.0011855967067258277,-0.00348861319627149,-0.018433676685711983
1778454635267659441,0.38922845879269796,-0.15953751805775382,9.249343365314166,-0.007935112173422649,0.0009428868576203606,0.0016785158665664232
1778454635288127370,0.26448402315453223,0.008847468687596671,9.318738315343701,-0.0005038274676655435,0.001420125324962565,-0.0017985072526410305
1778454635308507652,0.33431354259779755,-0.06760723305517341,9.304508091597855,0.0013369494777972259,-0.0008978900878424054,0.0021557543339086227
1778454635328918045,0.3435241207575658,-0.09645319698504201,9.3491104376247,-0.002549135184846396,-0.0033522593484594312,-0.0019348611004530868
1778454635349425197,0.3151344532682132,-0.025788170594350235,9.322043384836523,-0.0013219505545378832,-0.0007615362400303499,-0.0007076764701445738
1778454635369863719,0.31152675231213234,-0.05928181450064873,9.308921233122035,0.002018718716857512,0.0014883022488685893,-9.408415499031781e-05
1778454635390318019,0.3068105467247668,-0.040171317328547285,9.321966522520675,-0.0019355428696921397,0.001079240705432423,0.00017862354063379613
1778454635410689375,0.30785462455687174,-0.024590511892774947,9.317131309065582,-0.001867365945786112,-0.0021932516420569495,-0.0014576226331108875
1778454635431120619,0.3117075520078285,-0.05094501614830815,9.324478615055172,0.0008597110104550266,-0.0006251823922182945,0.0002468004645398247
1778454635451571623,0.3068105467247668,-0.040171317328547285,9.321966522520675,0.00045064946701885676,-0.0010342439356544608,0.0029057004968749364
1778454635472145534,0.3235539800706073,-0.03175578120047845,9.320996168099576,0.000587003314830914,0.0007383560859022739,-0.002752984187325429
1778454635492503001,0.3067563627626768,-0.04614078736778565,9.315993097631731,0.0006551802387369417,0.00019294069465405211,0.0029057004968749364
1778454635512927283,0.3164456291651394,-0.04255162178429478,9.323322808120366,-0.0008447120871956856,0.001965540716210787,0.0009285697036001098
1778454635533515602,0.31522170707374564,-0.050921323866930546,9.318538761568774,-0.001458304402349942,0.0013519484010565339,0.001337631247036281
1778454635553789550,0.3140778257559853,-0.04854256992850514,9.323307781969184,-0.003435435195624767,0.001420125324962565,0.000792215855788053
1778454635574252220,0.31264421735216064,-0.031755249085535286,9.313634673748632,-0.0004356505437595141,-0.0005570054683122633,0.003314762040311107
1778454635594657317,0.30680389315905643,-0.03897401337026746,9.321962109650363,-9.476592422937198e-05,-0.0008978900878424054,0.0009967466275061384
1778454635615081580,0.3032313709043417,-0.0473583736570109,9.320738266140335,-0.0017310120979740565,-0.00028429777268815237,-0.0013212687852988303
1778454635635552565,0.3177836173100166,-0.03898818528693937,9.334119995393714,-0.0008447120871956856,-0.001102420859560492,-0.0016621534048289733
1778454635655955124,0.30216334713350745,-0.03662236166365185,9.333870081385273,0.0008597110104550266,5.6586846841989724e-05,0.0018830466382845088
1778454635676427425,0.30441194582606357,-0.043764247605765805,9.320743572780769,0.00010976484748871293,0.0009428868576203606,-0.0012530918613928017
1778454635696854817,0.29978717727093807,-0.047395705740117255,9.331474511019136,0.0006551802387369417,-0.0014433054790906341,4.2269692821739376e-05
1778454635717245636,0.3177119429897982,-0.044954245375745494,9.326947472656666,0.0015414802495153125,-0.0013751285551846064,0.0012012773992242237
